Time,accX,accY,accZ
0.0,-49.0,65.0,1014.0
0.006672000000000011,-48.0,66.0,1020.0
0.013336000000000015,-52.0,68.0,1024.0
0.02000399999999991,-49.0,65.0,1017.0
0.026667999999999914,-53.0,67.0,1023.0
0.03333600000000003,-48.0,68.0,1020.0
0.04000399999999993,-55.0,67.0,1024.0
0.04666400000000004,-48.0,63.0,1025.0
0.05333600000000005,-52.0,69.0,1019.0
0.06000000000000005,-50.0,53.0,1019.0
0.06666400000000006,-49.0,61.0,1024.0
0.07333199999999995,-54.0,57.0,1035.0
0.07999599999999996,-50.0,65.0,1029.0
0.08665999999999996,-53.0,70.0,1040.0
0.09333199999999997,-56.0,58.0,1031.0
0.09999599999999997,-49.0,65.0,1021.0
0.10666399999999987,-46.0,65.0,1025.0
0.11332799999999987,-46.0,63.0,1019.0
0.11998799999999998,-51.0,64.0,1012.0
0.12666,-58.0,71.0,999.0
0.13331999999999988,-45.0,63.0,1001.0
0.1399919999999999,-45.0,68.0,998.0
0.146652,-49.0,62.0,989.0
0.15332400000000002,-49.0,68.0,995.0
0.1599839999999999,-46.0,65.0,1002.0
0.16665599999999992,-48.0,65.0,993.0
0.17331600000000003,-52.0,64.0,996.0
0.17998800000000004,-45.0,66.0,1004.0
0.18664799999999993,-51.0,74.0,1006.0
0.19331999999999994,-54.0,72.0,1010.0
0.19998000000000005,-54.0,60.0,1018.0
0.20665200000000006,-53.0,61.0,1025.0
0.21331199999999995,-51.0,69.0,1023.0
0.21998399999999996,-52.0,68.0,1032.0
0.22664400000000007,-55.0,65.0,1034.0
0.23331599999999986,-56.0,66.0,1034.0
0.23998399999999998,-54.0,64.0,1035.0
0.24664399999999986,-54.0,69.0,1035.0
0.253312,-57.0,71.0,1036.0
0.2599799999999999,-56.0,67.0,1033.0
0.2666439999999999,-52.0,68.0,1035.0
0.273312,-55.0,62.0,1036.0
0.279976,-50.0,71.0,1033.0
0.28664,-51.0,70.0,1029.0
0.293312,-55.0,67.0,1034.0
0.2999719999999999,-50.0,66.0,1030.0
0.30664,-48.0,69.0,1023.0
0.3133079999999999,-53.0,66.0,1014.0
0.3199719999999999,-45.0,69.0,1013.0
0.32664000000000004,-49.0,58.0,1004.0
0.33330799999999994,-50.0,72.0,1002.0
0.33997199999999994,-48.0,61.0,1003.0
0.34663599999999994,-51.0,60.0,996.0
0.35330400000000006,-52.0,68.0,997.0
0.35996799999999984,-50.0,67.0,997.0
0.36663599999999996,-50.0,60.0,994.0
0.37330399999999986,-49.0,62.0,990.0
0.37996399999999997,-51.0,62.0,1003.0
0.38663199999999986,-47.0,62.0,995.0
0.3933,-48.0,66.0,995.0
0.399964,-51.0,69.0,1009.0
0.4066319999999999,-49.0,72.0,1017.0
0.4133,-53.0,65.0,1018.0
0.419964,-53.0,61.0,1014.0
0.426628,-52.0,65.0,1028.0
0.4332959999999999,-56.0,67.0,1009.0
0.439964,-52.0,71.0,1010.0
0.4466239999999999,-51.0,56.0,1000.0
0.4532959999999999,-49.0,66.0,998.0
0.45995600000000003,-53.0,63.0,988.0
0.46662800000000004,-50.0,65.0,994.0
0.47328799999999993,-58.0,65.0,997.0
0.47995600000000005,-54.0,63.0,996.0
0.48662000000000005,-51.0,65.0,1020.0
0.49328799999999995,-52.0,69.0,1021.0
0.49995199999999973,-57.0,68.0,1011.0
0.5066200000000001,-61.0,68.0,1033.0
0.5132839999999999,-55.0,72.0,1033.0
0.5199519999999997,-62.0,65.0,1033.0
0.5266119999999999,-59.0,62.0,1034.0
0.5332839999999999,-57.0,62.0,1028.0
0.539944,-57.0,76.0,1026.0
0.5466200000000001,-58.0,67.0,1016.0
0.5532760000000001,-56.0,65.0,1001.0
0.5599480000000001,-58.0,69.0,998.0
0.5666079999999998,-57.0,72.0,1000.0
0.5732839999999999,-57.0,63.0,1010.0
0.5799480000000001,-57.0,70.0,1014.0
0.586616,-55.0,57.0,1021.0
0.5932760000000001,-63.0,69.0,1030.0
0.5999480000000001,-61.0,64.0,1030.0
0.6066079999999998,-62.0,65.0,1036.0
0.6132760000000002,-67.0,70.0,1040.0
0.619944,-66.0,67.0,1055.0
0.626612,-70.0,62.0,1048.0
0.6332720000000001,-68.0,68.0,1051.0
0.6399440000000001,-68.0,71.0,1050.0
0.6466079999999998,-66.0,63.0,1045.0
0.6532759999999997,-63.0,69.0,1029.0
0.65994,-67.0,59.0,1022.0
0.6666079999999999,-63.0,64.0,1010.0
0.673268,-59.0,72.0,995.0
0.67994,-65.0,60.0,996.0
0.6866000000000001,-59.0,68.0,987.0
0.6932720000000001,-61.0,61.0,982.0
0.6999359999999999,-64.0,58.0,994.0
0.7066039999999998,-62.0,60.0,997.0
0.713268,-63.0,68.0,1003.0
0.7199319999999998,-63.0,61.0,1013.0
0.7266000000000001,-65.0,59.0,998.0
0.7332639999999999,-65.0,68.0,1002.0
0.7399319999999998,-66.0,67.0,1007.0
0.746596,-67.0,60.0,999.0
0.7532639999999999,-61.0,73.0,1012.0
0.7599279999999997,-66.0,68.0,1005.0
0.766596,-68.0,62.0,1001.0
0.7732599999999998,-71.0,66.0,1001.0
0.7799279999999997,-68.0,62.0,1004.0
0.786592,-72.0,62.0,1012.0
0.7932599999999999,-69.0,63.0,1013.0
0.79992,-70.0,60.0,1020.0
0.806592,-67.0,64.0,1020.0
0.8132520000000001,-70.0,62.0,1022.0
0.8199240000000001,-73.0,63.0,1024.0
0.8265839999999998,-71.0,65.0,1016.0
0.8332559999999998,-70.0,56.0,1025.0
0.8399159999999999,-73.0,62.0,1025.0
0.8465839999999998,-74.0,65.0,1028.0
0.853248,-73.0,65.0,1027.0
0.85992,-73.0,65.0,1030.0
0.8665800000000001,-73.0,68.0,1028.0
0.8732520000000001,-73.0,68.0,1026.0
0.8799119999999998,-75.0,63.0,1036.0
0.8865839999999998,-77.0,55.0,1032.0
0.8932439999999999,-80.0,64.0,1040.0
0.8999159999999999,-73.0,62.0,1044.0
0.906576,-78.0,61.0,1048.0
0.9132480000000001,-77.0,62.0,1045.0
0.9199119999999998,-78.0,71.0,1046.0
0.9265799999999997,-77.0,71.0,1043.0
0.933244,-75.0,65.0,1038.0
0.9399119999999999,-76.0,63.0,1035.0
0.9465760000000001,-76.0,66.0,1024.0
0.953244,-72.0,63.0,1017.0
0.9599119999999999,-71.0,59.0,1008.0
0.9665760000000001,-71.0,59.0,998.0
0.973244,-74.0,64.0,990.0
0.9799079999999998,-67.0,68.0,985.0
0.9865760000000001,-71.0,61.0,981.0
0.9932399999999999,-73.0,60.0,984.0
0.9999040000000001,-71.0,59.0,990.0
1.006572,-71.0,58.0,989.0
1.0132359999999998,-71.0,59.0,997.0
1.0199040000000001,-75.0,65.0,989.0
1.026568,-72.0,65.0,997.0
1.0332359999999998,-72.0,63.0,997.0
1.0399,-74.0,63.0,1004.0
1.046568,-76.0,62.0,1002.0
1.0532319999999997,-75.0,58.0,1011.0
1.0599,-77.0,63.0,1020.0
1.0665639999999998,-79.0,65.0,1025.0
1.0732319999999997,-77.0,59.0,1026.0
1.0799,-79.0,64.0,1031.0
1.0865639999999999,-82.0,62.0,1030.0
1.093228,-86.0,67.0,1037.0
1.0998919999999999,-82.0,63.0,1038.0
1.1065599999999998,-81.0,66.0,1036.0
1.113228,-81.0,65.0,1037.0
1.1198919999999999,-78.0,70.0,1035.0
1.1265599999999998,-84.0,64.0,1026.0
1.1332280000000001,-86.0,60.0,1025.0
1.1398840000000001,-79.0,63.0,1026.0
1.1465599999999998,-80.0,62.0,1025.0
1.15322,-82.0,67.0,1023.0
1.1598879999999998,-83.0,62.0,1015.0
1.166552,-77.0,63.0,1018.0
1.17322,-78.0,64.0,1018.0
1.17988,-81.0,60.0,1024.0
1.1865559999999997,-79.0,64.0,1009.0
1.1932119999999997,-82.0,60.0,1016.0
1.1998839999999997,-78.0,64.0,1011.0
1.2065439999999998,-81.0,61.0,1013.0
1.2132159999999999,-77.0,65.0,1004.0
1.219876,-82.0,63.0,1006.0
1.226552,-78.0,62.0,1009.0
1.233208,-77.0,62.0,1006.0
1.23988,-78.0,63.0,1005.0
1.2465439999999999,-75.0,60.0,1011.0
1.2532159999999999,-82.0,65.0,1014.0
1.259876,-80.0,65.0,1023.0
1.266548,-82.0,66.0,1031.0
1.2732119999999998,-84.0,62.0,1031.0
1.279876,-80.0,70.0,1031.0
1.286544,-82.0,67.0,1035.0
1.2932079999999997,-84.0,64.0,1039.0
1.299876,-84.0,66.0,1038.0
1.3065399999999998,-81.0,43.0,1057.0
1.3132079999999997,-86.0,68.0,1085.0
1.319872,-88.0,82.0,1099.0
1.3265399999999998,-88.0,77.0,1132.0
1.333204,-93.0,81.0,1156.0
1.339872,-97.0,100.0,1188.0
1.3465359999999997,-85.0,83.0,1240.0
1.353204,-94.0,62.0,1280.0
1.3598679999999999,-85.0,102.0,1328.0
1.3665359999999998,-103.0,94.0,1314.0
1.3732,-90.0,77.0,1255.0
1.3798679999999999,-70.0,56.0,1179.0
1.386532,-73.0,59.0,1084.0
1.3932,-67.0,58.0,992.0
1.3998639999999998,-42.0,63.0,931.0
1.4065320000000001,-38.0,54.0,853.0
1.413196,-38.0,42.0,772.0
1.4198639999999998,-21.0,49.0,720.0
1.4265319999999997,-11.0,48.0,662.0
1.433196,-16.0,37.0,616.0
1.4398639999999998,-5.0,27.0,593.0
1.446528,1.0,36.0,589.0
1.4531919999999998,-2.0,41.0,587.0
1.4598599999999997,-8.0,44.0,616.0
1.466528,-6.0,37.0,652.0
1.4731919999999998,-18.0,46.0,704.0
1.479852,-30.0,52.0,759.0
1.486524,-38.0,49.0,836.0
1.493184,-45.0,54.0,917.0
1.499856,-59.0,62.0,997.0
1.5065159999999997,-69.0,73.0,1097.0
1.5131879999999998,-69.0,82.0,1163.0
1.5198479999999999,-79.0,78.0,1228.0
1.5265199999999999,-93.0,81.0,1297.0
1.53318,-91.0,92.0,1359.0
1.539852,-97.0,97.0,1406.0
1.546512,-105.0,96.0,1433.0
1.5531839999999997,-106.0,100.0,1440.0
1.5598400000000001,-100.0,101.0,1437.0
1.5665159999999998,-105.0,96.0,1420.0
1.573176,-101.0,93.0,1392.0
1.579848,-93.0,87.0,1350.0
1.586508,-93.0,90.0,1287.0
1.59318,-85.0,84.0,1213.0
1.5998439999999998,-74.0,77.0,1144.0
1.6065119999999997,-64.0,69.0,1055.0
1.61318,-58.0,65.0,985.0
1.6198439999999998,-46.0,57.0,906.0
1.6265119999999997,-39.0,48.0,823.0
1.633176,-25.0,48.0,748.0
1.6398399999999997,-17.0,46.0,685.0
1.646508,-13.0,44.0,653.0
1.6531719999999999,1.0,41.0,612.0
1.6598399999999998,-2.0,31.0,596.0
1.666504,-2.0,44.0,592.0
1.6731719999999999,-3.0,41.0,609.0
1.679836,-12.0,39.0,634.0
1.686504,-18.0,43.0,683.0
1.6931679999999998,-21.0,46.0,730.0
1.6998359999999997,-28.0,50.0,783.0
1.706504,-38.0,52.0,874.0
1.7131679999999998,-52.0,58.0,948.0
1.719832,-62.0,64.0,1031.0
1.7265,-69.0,74.0,1115.0
1.7331679999999998,-77.0,78.0,1179.0
1.739832,-87.0,83.0,1250.0
1.7464959999999998,-92.0,88.0,1320.0
1.75316,-97.0,92.0,1373.0
1.759832,-97.0,93.0,1404.0
1.7664959999999998,-99.0,91.0,1426.0
1.77316,-106.0,99.0,1437.0
1.779828,-106.0,97.0,1428.0
1.7864959999999999,-104.0,90.0,1399.0
1.79316,-100.0,89.0,1370.0
1.7998239999999999,-93.0,85.0,1330.0
1.8064919999999998,-90.0,81.0,1243.0
1.813156,-84.0,79.0,1193.0
1.819816,-70.0,73.0,1109.0
1.8264879999999997,-61.0,63.0,1033.0
1.8331479999999998,-53.0,59.0,959.0
1.8398199999999998,-45.0,59.0,864.0
1.84648,-34.0,52.0,807.0
1.853152,-30.0,51.0,734.0
1.8598159999999997,-16.0,47.0,687.0
1.8664879999999997,-11.0,41.0,634.0
1.8731439999999997,-7.0,40.0,617.0
1.8798159999999997,-2.0,39.0,598.0
1.8864759999999998,-4.0,40.0,597.0
1.8931479999999998,-6.0,35.0,617.0
1.899812,-11.0,44.0,653.0
1.906484,-15.0,44.0,697.0
1.91314,-30.0,50.0,759.0
1.919812,-37.0,51.0,831.0
1.9264759999999999,-44.0,54.0,896.0
1.9331439999999998,-54.0,65.0,987.0
1.939812,-65.0,66.0,1057.0
1.94648,-71.0,78.0,1136.0
1.9531439999999998,-81.0,76.0,1204.0
1.9598119999999997,-84.0,81.0,1273.0
1.966476,-95.0,85.0,1334.0
1.9731439999999998,-92.0,92.0,1370.0
1.979804,-99.0,93.0,1412.0
1.986476,-99.0,94.0,1427.0
1.9931399999999997,-101.0,98.0,1424.0
1.999808,-106.0,96.0,1413.0
2.006468,-102.0,94.0,1392.0
2.01314,-92.0,90.0,1348.0
2.0198039999999997,-90.0,89.0,1290.0
2.026472,-86.0,81.0,1231.0
2.033136,-74.0,80.0,1152.0
2.0397999999999996,-66.0,74.0,1086.0
2.046468,-59.0,66.0,1001.0
2.0531360000000003,-52.0,64.0,922.0
2.0598,-42.0,55.0,844.0
2.066464,-36.0,50.0,779.0
2.073132,-22.0,45.0,713.0
2.0797999999999996,-12.0,43.0,668.0
2.0864639999999994,-10.0,39.0,634.0
2.093128,-6.0,35.0,619.0
2.0997959999999996,-3.0,37.0,606.0
2.106464,-7.0,43.0,616.0
2.1131279999999997,-6.0,42.0,640.0
2.1197919999999995,-16.0,43.0,669.0
2.12646,-16.0,48.0,726.0
2.1331239999999996,-30.0,48.0,790.0
2.139792,-36.0,57.0,856.0
2.1464559999999997,-49.0,59.0,939.0
2.153124,-56.0,68.0,1012.0
2.159784,-66.0,76.0,1077.0
2.166456,-75.0,75.0,1162.0
2.1731160000000003,-79.0,79.0,1232.0
2.1797880000000003,-84.0,86.0,1285.0
2.1864479999999995,-90.0,89.0,1350.0
2.1931199999999995,-94.0,95.0,1380.0
2.1997799999999996,-104.0,106.0,1414.0
2.2064519999999996,-108.0,114.0,1421.0
2.213108,-112.0,109.0,1414.0
2.2197839999999998,-110.0,87.0,1396.0
2.22644,-102.0,60.0,1376.0
2.233116,-91.0,54.0,1322.0
2.239776,-72.0,71.0,1275.0
2.246448,-71.0,85.0,1200.0
2.253108,-70.0,88.0,1123.0
2.25978,-60.0,85.0,1058.0
2.2664400000000002,-58.0,75.0,983.0
2.2731120000000002,-50.0,53.0,903.0
2.2797719999999995,-43.0,38.0,822.0
2.2864439999999995,-33.0,28.0,755.0
2.293112,-16.0,40.0,699.0
2.2997759999999996,-10.0,48.0,658.0
2.3064400000000003,-5.0,54.0,629.0
2.3131079999999997,0.0,54.0,616.0
2.3197719999999995,5.0,53.0,609.0
2.32644,3.0,44.0,628.0
2.3331039999999996,-5.0,41.0,659.0
2.339772,-21.0,31.0,693.0
2.3464400000000003,-27.0,38.0,752.0
2.353104,-39.0,53.0,811.0
2.359768,-52.0,70.0,890.0
2.366436,-54.0,61.0,959.0
2.3731039999999997,-62.0,62.0,1032.0
2.3797679999999994,-60.0,63.0,1122.0
2.386436,-74.0,76.0,1175.0
2.3930999999999996,-77.0,76.0,1248.0
2.3997640000000002,-90.0,85.0,1304.0
2.4064319999999997,-98.0,91.0,1350.0
2.4130959999999995,-103.0,93.0,1385.0
2.419764,-105.0,87.0,1412.0
2.4264279999999996,-104.0,89.0,1424.0
2.433096,-96.0,96.0,1408.0
2.4397599999999997,-92.0,96.0,1394.0
2.446428,-92.0,93.0,1342.0
2.453092,-89.0,94.0,1297.0
2.45976,-82.0,85.0,1232.0
2.466424,-81.0,85.0,1173.0
2.4730920000000003,-71.0,69.0,1112.0
2.479756,-63.0,55.0,1027.0
2.48642,-56.0,57.0,956.0
2.493088,-40.0,56.0,867.0
2.4997480000000003,-36.0,51.0,811.0
2.5064200000000003,-19.0,52.0,755.0
2.5130800000000004,-12.0,46.0,700.0
2.5197520000000004,-10.0,40.0,662.0
2.5264119999999997,-2.0,42.0,641.0
2.5330839999999997,-6.0,36.0,626.0
2.5397480000000003,-4.0,37.0,625.0
2.546416,-7.0,39.0,643.0
2.553076,-13.0,45.0,672.0
2.559748,-24.0,48.0,723.0
2.5664119999999997,-28.0,54.0,774.0
2.57308,-36.0,55.0,850.0
2.57974,-41.0,60.0,912.0
2.586416,-50.0,64.0,986.0
2.5930720000000003,-64.0,68.0,1063.0
2.599748,-69.0,71.0,1136.0
2.6064040000000004,-79.0,78.0,1205.0
2.6130760000000004,-81.0,81.0,1262.0
2.6197360000000005,-92.0,92.0,1324.0
2.626412,-93.0,91.0,1361.0
2.633076,-97.0,93.0,1390.0
2.6397440000000003,-96.0,90.0,1405.0
2.6464040000000004,-104.0,88.0,1404.0
2.6530760000000004,-97.0,91.0,1394.0
2.6597359999999997,-99.0,88.0,1359.0
2.6664079999999997,-95.0,89.0,1339.0
2.6730679999999998,-89.0,80.0,1269.0
2.67974,-84.0,76.0,1212.0
2.6864040000000005,-76.0,76.0,1156.0
2.693072,-65.0,66.0,1064.0
2.6997359999999997,-61.0,68.0,1005.0
2.7064000000000004,-44.0,63.0,917.0
2.713068,-40.0,52.0,853.0
2.719736,-29.0,50.0,784.0
2.7264,-19.0,47.0,729.0
2.7330680000000003,-18.0,42.0,687.0
2.7397280000000004,-17.0,36.0,647.0
2.7464000000000004,-7.0,39.0,634.0
2.753064,-16.0,42.0,627.0
2.759728,-6.0,39.0,633.0
2.7663960000000003,-14.0,40.0,660.0
2.7730639999999998,-16.0,40.0,696.0
2.7797280000000004,-17.0,43.0,740.0
2.786392,-33.0,47.0,808.0
2.7930599999999997,-38.0,62.0,866.0
2.7997240000000003,-52.0,58.0,939.0
2.8063919999999998,-55.0,68.0,1024.0
2.81306,-67.0,75.0,1082.0
2.819724,-75.0,71.0,1167.0
2.8263879999999997,-80.0,75.0,1219.0
2.833056,-85.0,84.0,1279.0
2.839716,-92.0,92.0,1332.0
2.846388,-95.0,91.0,1368.0
2.8530480000000003,-96.0,91.0,1392.0
2.8597200000000003,-98.0,91.0,1407.0
2.8663800000000004,-102.0,94.0,1404.0
2.8730520000000004,-99.0,90.0,1387.0
2.8797120000000005,-96.0,85.0,1350.0
2.8863839999999996,-91.0,87.0,1292.0
2.8930439999999997,-87.0,78.0,1240.0
2.8997159999999997,-74.0,80.0,1184.0
2.906376,-71.0,75.0,1125.0
2.913048,-62.0,73.0,1041.0
2.919708,-55.0,54.0,968.0
2.92638,-44.0,54.0,901.0
2.93304,-35.0,51.0,822.0
2.939712,-24.0,54.0,761.0
2.946372,-22.0,50.0,722.0
2.9530440000000002,-14.0,52.0,678.0
2.9597040000000003,-8.0,42.0,654.0
2.9663760000000003,-2.0,44.0,635.0
2.97304,-5.0,45.0,634.0
2.9797080000000005,-7.0,38.0,652.0
2.9863720000000002,-11.0,36.0,681.0
2.9930399999999997,-10.0,42.0,723.0
2.999708,-25.0,54.0,765.0
3.006372,-38.0,57.0,827.0
3.01304,-40.0,57.0,892.0
3.019704,-53.0,64.0,970.0
3.0263720000000003,-67.0,62.0,1033.0
3.033036,-67.0,74.0,1122.0
3.0397,-77.0,78.0,1181.0
3.046368,-86.0,82.0,1231.0
3.053032,-89.0,88.0,1295.0
3.0597000000000003,-90.0,92.0,1343.0
3.066364,-91.0,88.0,1373.0
3.0730320000000004,-92.0,92.0,1393.0
3.079696,-90.0,93.0,1387.0
3.0863639999999997,-95.0,94.0,1376.0
3.0930280000000003,-95.0,89.0,1367.0
3.099696,-96.0,87.0,1329.0
3.1063600000000005,-89.0,79.0,1270.0
3.113028,-89.0,74.0,1223.0
3.1196960000000002,-72.0,76.0,1158.0
3.12636,-70.0,76.0,1096.0
3.133024,-57.0,65.0,1016.0
3.139692,-52.0,62.0,948.0
3.1463600000000005,-40.0,59.0,875.0
3.1530240000000003,-35.0,48.0,810.0
3.1596919999999997,-27.0,43.0,768.0
3.1663560000000004,-20.0,47.0,719.0
3.17302,-18.0,46.0,677.0
3.1796800000000003,-11.0,45.0,649.0
3.186356,-9.0,47.0,650.0
3.1930120000000004,-8.0,40.0,651.0
3.1996840000000004,-9.0,41.0,670.0
3.206348,-21.0,49.0,699.0
3.21302,-18.0,48.0,751.0
3.2196759999999998,-25.0,51.0,800.0
3.2263520000000003,-38.0,56.0,847.0
3.233008,-42.0,58.0,933.0
3.23968,-57.0,67.0,993.0
3.24634,-61.0,65.0,1058.0
3.253012,-68.0,72.0,1132.0
3.259676,-79.0,77.0,1200.0
3.266348,-83.0,84.0,1251.0
3.2730040000000002,-88.0,89.0,1303.0
3.27968,-92.0,88.0,1346.0
3.2863360000000004,-91.0,90.0,1370.0
3.2930080000000004,-101.0,93.0,1385.0
3.299672,-97.0,91.0,1380.0
3.3063399999999996,-101.0,80.0,1379.0
3.313008,-89.0,86.0,1350.0
3.3196719999999997,-87.0,87.0,1299.0
3.32634,-84.0,85.0,1249.0
3.333004,-76.0,78.0,1189.0
3.339672,-72.0,73.0,1135.0
3.346336,-64.0,66.0,1056.0
3.3530040000000003,-56.0,61.0,988.0
3.3596719999999998,-50.0,59.0,908.0
3.366332,-40.0,60.0,851.0
3.373004,-34.0,50.0,807.0
3.3796679999999997,-23.0,47.0,737.0
3.386336,-21.0,46.0,704.0
3.393,-12.0,39.0,672.0
3.399668,-10.0,41.0,654.0
3.4063280000000002,-9.0,44.0,656.0
3.4130000000000003,-6.0,39.0,654.0
3.419664,-11.0,44.0,681.0
3.426328,-24.0,49.0,719.0
3.432996,-29.0,54.0,762.0
3.43966,-32.0,47.0,820.0
3.4463280000000003,-39.0,54.0,892.0
3.452992,-52.0,57.0,946.0
3.4596600000000004,-57.0,61.0,1028.0
3.466324,-65.0,72.0,1086.0
3.4729919999999996,-69.0,75.0,1145.0
3.4796560000000003,-79.0,82.0,1211.0
3.4863239999999998,-81.0,88.0,1262.0
3.4929880000000004,-91.0,80.0,1330.0
3.499656,-91.0,88.0,1349.0
3.5063199999999997,-91.0,91.0,1371.0
3.512988,-95.0,90.0,1384.0
3.5196560000000003,-101.0,84.0,1381.0
3.52632,-96.0,92.0,1346.0
3.5329800000000002,-90.0,91.0,1335.0
3.5396520000000002,-84.0,86.0,1283.0
3.5463120000000004,-82.0,82.0,1235.0
3.5529840000000004,-73.0,77.0,1167.0
3.5596439999999996,-69.0,65.0,1099.0
3.566312,-61.0,65.0,1036.0
3.5729759999999997,-53.0,62.0,965.0
3.5796479999999997,-45.0,59.0,897.0
3.586308,-41.0,52.0,839.0
3.59298,-27.0,48.0,784.0
3.59964,-26.0,49.0,734.0
3.606312,-15.0,38.0,694.0
3.612972,-14.0,38.0,665.0
3.619644,-8.0,35.0,662.0
3.626304,-11.0,42.0,659.0
3.632976,-7.0,44.0,672.0
3.6396360000000003,-19.0,44.0,707.0
3.6463080000000003,-20.0,46.0,743.0
3.652976,-25.0,49.0,786.0
3.659636,-36.0,51.0,846.0
3.6663040000000002,-44.0,58.0,904.0
3.6729719999999997,-53.0,60.0,983.0
3.67964,-59.0,68.0,1049.0
3.6863,-68.0,75.0,1111.0
3.692972,-74.0,79.0,1177.0
3.699636,-77.0,84.0,1229.0
3.7062999999999997,-86.0,80.0,1287.0
3.712968,-87.0,90.0,1322.0
3.719632,-93.0,91.0,1351.0
3.7263,-91.0,87.0,1372.0
3.7329679999999996,-90.0,95.0,1370.0
3.7396320000000003,-93.0,91.0,1357.0
3.746296,-91.0,87.0,1339.0
3.7529640000000004,-88.0,89.0,1312.0
3.759628,-84.0,83.0,1257.0
3.766292,-83.0,81.0,1209.0
3.7729600000000003,-71.0,70.0,1141.0
3.7796279999999998,-65.0,68.0,1080.0
3.786296,-57.0,64.0,1007.0
3.792956,-50.0,65.0,950.0
3.7996239999999997,-38.0,48.0,882.0
3.8062880000000003,-29.0,53.0,818.0
3.8129600000000003,-25.0,55.0,771.0
3.819624,-27.0,58.0,720.0
3.8262919999999996,-24.0,53.0,685.0
3.8329560000000003,-29.0,41.0,666.0
3.83962,-13.0,34.0,657.0
3.8462880000000004,0.0,34.0,675.0
3.852956,-7.0,47.0,693.0
3.8596199999999996,-20.0,48.0,720.0
3.866288,-8.0,51.0,758.0
3.8729440000000004,-21.0,56.0,815.0
3.87962,-43.0,62.0,866.0
3.88628,-56.0,60.0,944.0
3.892952,-57.0,57.0,1008.0
3.8996120000000003,-68.0,57.0,1067.0
3.9062840000000003,-78.0,73.0,1148.0
3.9129440000000004,-76.0,85.0,1193.0
3.919612,-80.0,87.0,1250.0
3.9262759999999997,-85.0,92.0,1298.0
3.932944,-91.0,96.0,1341.0
3.9396079999999998,-90.0,98.0,1359.0
3.94628,-95.0,88.0,1372.0
3.9529360000000002,-97.0,83.0,1364.0
3.959612,-92.0,85.0,1357.0
3.9662680000000003,-88.0,90.0,1327.0
3.9729400000000004,-84.0,80.0,1288.0
3.979604,-74.0,81.0,1234.0
3.9862719999999996,-67.0,87.0,1177.0
3.99294,-61.0,88.0,1116.0
3.9996039999999997,-68.0,86.0,1041.0
4.006272,-61.0,63.0,974.0
4.012936,-55.0,60.0,913.0
4.019604,-42.0,50.0,840.0
4.026268,-32.0,42.0,795.0
4.032936,-26.0,44.0,744.0
4.0396,-13.0,45.0,710.0
4.046268,-12.0,46.0,688.0
4.052932,-9.0,46.0,668.0
4.0596,-6.0,37.0,668.0
4.066264,-13.0,36.0,676.0
4.072932,-19.0,34.0,696.0
4.0796,-28.0,41.0,738.0
4.086264,-32.0,46.0,792.0
4.092932,-36.0,56.0,846.0
4.099596,-49.0,63.0,899.0
4.106264,-51.0,67.0,966.0
4.112928,-57.0,67.0,1031.0
4.119596,-61.0,73.0,1107.0
4.12626,-70.0,81.0,1160.0
4.132924,-81.0,80.0,1229.0
4.139592,-80.0,83.0,1271.0
4.146256,-87.0,91.0,1318.0
4.152924,-94.0,94.0,1343.0
4.159588,-91.0,88.0,1354.0
4.166256,-92.0,88.0,1370.0
4.17292,-94.0,89.0,1352.0
4.179588,-90.0,81.0,1342.0
4.186252,-88.0,85.0,1312.0
4.19292,-84.0,77.0,1256.0
4.199584,-79.0,74.0,1199.0
4.206252,-71.0,75.0,1151.0
4.212908,-66.0,73.0,1086.0
4.219584,-59.0,59.0,1019.0
4.226244,-54.0,58.0,963.0
4.232916,-43.0,49.0,883.0
4.239576,-35.0,52.0,831.0
4.246248,-26.0,51.0,763.0
4.252908,-23.0,50.0,733.0
4.25958,-18.0,43.0,702.0
4.26624,-12.0,46.0,678.0
4.272912,-11.0,43.0,672.0
4.279572,-10.0,48.0,675.0
4.286244,-15.0,46.0,691.0
4.292904,-19.0,49.0,719.0
4.299576,-27.0,50.0,764.0
4.306236,-32.0,51.0,806.0
4.312908,-39.0,58.0,880.0
4.319568,-48.0,60.0,935.0
4.32624,-56.0,59.0,990.0
4.332908,-59.0,71.0,1062.0
4.339572,-72.0,77.0,1123.0
4.34624,-76.0,78.0,1193.0
4.352904,-80.0,79.0,1226.0
4.359568,-82.0,85.0,1283.0
4.366236,-87.0,79.0,1322.0
4.3729,-89.0,90.0,1346.0
4.379568,-90.0,91.0,1359.0
4.386236,-91.0,89.0,1357.0
4.3929,-93.0,87.0,1347.0
4.399568,-92.0,90.0,1326.0
4.406232,-86.0,85.0,1285.0
4.412896,-79.0,83.0,1230.0
4.419564,-78.0,79.0,1185.0
4.426228,-68.0,81.0,1120.0
4.432896,-63.0,75.0,1044.0
4.43956,-56.0,68.0,998.0
4.446228,-45.0,62.0,920.0
4.452892,-41.0,53.0,868.0
4.45956,-32.0,51.0,813.0
4.466224,-26.0,48.0,756.0
4.472892,-20.0,45.0,724.0
4.479556,-18.0,42.0,695.0
4.486224,-15.0,43.0,686.0
4.492892,-11.0,43.0,678.0
4.499556,-13.0,38.0,682.0
4.50622,-13.0,38.0,703.0
4.512888,-21.0,46.0,741.0
4.519556,-28.0,47.0,779.0
4.52622,-37.0,50.0,842.0
4.532884,-42.0,52.0,890.0
4.539552,-50.0,58.0,951.0
4.54622,-51.0,65.0,1021.0
4.552876,-62.0,72.0,1078.0
4.559548,-71.0,73.0,1150.0
4.566208,-72.0,87.0,1204.0
4.57288,-78.0,81.0,1239.0
4.57954,-84.0,89.0,1286.0
4.586216,-92.0,91.0,1327.0
4.592872,-89.0,91.0,1339.0
4.599544,-93.0,90.0,1353.0
4.606208,-90.0,90.0,1345.0
4.612876,-86.0,90.0,1334.0
4.619536,-89.0,87.0,1317.0
4.626212,-80.0,81.0,1263.0
4.632872,-76.0,76.0,1215.0
4.63954,-75.0,71.0,1153.0
4.6462,-64.0,73.0,1100.0
4.652872,-62.0,72.0,1039.0
4.659532,-53.0,57.0,970.0
4.666208,-45.0,54.0,912.0
4.672872,-34.0,54.0,845.0
4.679536,-29.0,48.0,795.0
4.686204,-29.0,41.0,749.0
4.692868,-19.0,46.0,723.0
4.699536,-11.0,49.0,696.0
4.7062,-9.0,42.0,677.0
4.712868,-15.0,49.0,681.0
4.719532,-12.0,44.0,697.0
4.7262,-25.0,46.0,731.0
4.732864,-27.0,52.0,761.0
4.739532,-28.0,53.0,809.0
4.7462,-43.0,53.0,860.0
4.752864,-46.0,58.0,916.0
4.7595279999999995,-47.0,62.0,991.0
4.766196,-61.0,62.0,1039.0
4.772864,-68.0,71.0,1113.0
4.779528,-71.0,74.0,1169.0
4.786192,-73.0,83.0,1218.0
4.79286,-86.0,79.0,1266.0
4.799524,-84.0,89.0,1302.0
4.806188,-86.0,93.0,1335.0
4.81286,-90.0,90.0,1352.0
4.819524,-88.0,90.0,1344.0
4.826192,-89.0,84.0,1347.0
4.832856,-86.0,86.0,1322.0
4.83952,-83.0,86.0,1274.0
4.846188,-81.0,87.0,1234.0
4.852852,-72.0,78.0,1178.0
4.85952,-74.0,72.0,1127.0
4.866184,-60.0,71.0,1068.0
4.872852,-52.0,65.0,1005.0
4.879516,-53.0,63.0,942.0
4.886184,-43.0,60.0,869.0
4.892844,-34.0,52.0,825.0
4.899516,-31.0,51.0,780.0
4.906176,-27.0,51.0,739.0
4.912848,-16.0,49.0,714.0
4.9195079999999995,-11.0,46.0,697.0
4.92618,-18.0,42.0,687.0
4.93284,-9.0,46.0,690.0
4.939508,-11.0,44.0,718.0
4.946172,-23.0,46.0,748.0
4.952844,-23.0,48.0,788.0
4.959504,-32.0,52.0,841.0
4.966176,-37.0,54.0,879.0
4.972836,-51.0,57.0,959.0
4.979508,-55.0,65.0,1011.0
4.986168,-60.0,71.0,1077.0
4.99284,-69.0,74.0,1133.0
4.9995,-69.0,75.0,1186.0
5.006172,-78.0,78.0,1235.0
5.012836,-86.0,82.0,1275.0
5.0195039999999995,-83.0,87.0,1324.0
5.026172,-90.0,89.0,1335.0
5.032836,-90.0,89.0,1341.0
5.039504,-90.0,92.0,1341.0
5.046168,-91.0,89.0,1332.0
5.0528319999999995,-86.0,85.0,1285.0
5.0595,-87.0,82.0,1257.0
5.066164,-74.0,86.0,1212.0
5.072832,-73.0,75.0,1165.0
5.079496,-70.0,68.0,1103.0
5.086164,-57.0,64.0,1038.0
5.092828,-49.0,60.0,980.0
5.099496,-44.0,58.0,907.0
5.10616,-37.0,54.0,868.0
5.112828,-37.0,52.0,814.0
5.119496,-25.0,53.0,759.0
5.12616,-22.0,51.0,731.0
5.132828,-18.0,51.0,708.0
5.139492,-10.0,43.0,697.0
5.146156,-16.0,48.0,694.0
5.152824,-18.0,43.0,704.0
5.159488,-18.0,47.0,730.0
5.166156,-19.0,48.0,770.0
5.17282,-31.0,54.0,800.0
5.179488,-36.0,55.0,850.0
5.1861559999999995,-46.0,56.0,920.0
5.19282,-50.0,64.0,977.0
5.199484,-54.0,69.0,1040.0
5.206152,-60.0,72.0,1099.0
5.212816,-69.0,82.0,1148.0
5.219484,-75.0,78.0,1212.0
5.226152,-78.0,86.0,1248.0
5.232808,-83.0,85.0,1283.0
5.239484,-85.0,91.0,1324.0
5.24614,-90.0,89.0,1329.0
5.252816,-87.0,90.0,1336.0
5.259472,-89.0,92.0,1326.0
5.266144,-90.0,88.0,1305.0
5.272804,-82.0,84.0,1265.0
5.27948,-81.0,81.0,1234.0
5.286136,-82.0,85.0,1190.0
5.292812,-72.0,77.0,1146.0
5.299472,-66.0,76.0,1076.0
5.30614,-58.0,63.0,1017.0
5.3128,-54.0,63.0,963.0
5.319476,-41.0,58.0,897.0
5.326132,-33.0,50.0,843.0
5.332808,-36.0,48.0,788.0
5.3394639999999995,-25.0,48.0,750.0
5.3461359999999996,-21.0,52.0,731.0
5.3528,-17.0,47.0,703.0
5.359472,-9.0,47.0,699.0
5.366132,-8.0,49.0,710.0
5.372804,-21.0,46.0,724.0
5.379464,-24.0,46.0,745.0
5.386136,-26.0,49.0,784.0
5.3928,-32.0,51.0,826.0
5.399468,-42.0,58.0,872.0
5.406128,-44.0,57.0,947.0
5.4128,-60.0,65.0,1004.0
5.419464,-59.0,67.0,1061.0
5.426132,-62.0,74.0,1118.0
5.432796,-70.0,74.0,1174.0
5.439464,-73.0,80.0,1218.0
5.446128,-83.0,85.0,1263.0
5.452796,-86.0,88.0,1294.0
5.45946,-91.0,89.0,1303.0
5.466128,-97.0,85.0,1330.0
5.472792,-93.0,89.0,1331.0
5.4794599999999996,-88.0,88.0,1321.0
5.486124,-75.0,88.0,1289.0
5.492792,-81.0,89.0,1261.0
5.499456,-74.0,80.0,1216.0
5.50612,-69.0,77.0,1175.0
5.512788,-68.0,76.0,1116.0
5.519456,-67.0,75.0,1052.0
5.52612,-54.0,63.0,986.0
5.532784,-44.0,56.0,940.0
5.539452,-44.0,58.0,877.0
5.546116,-31.0,54.0,843.0
5.552784,-27.0,55.0,784.0
5.559448,-21.0,51.0,746.0
5.566116,-18.0,49.0,723.0
5.572776,-22.0,49.0,706.0
5.579448,-12.0,42.0,707.0
5.586108,-14.0,41.0,713.0
5.59278,-17.0,43.0,737.0
5.5994399999999995,-33.0,54.0,751.0
5.6061119999999995,-27.0,55.0,790.0
5.612772,-31.0,54.0,858.0
5.619444,-46.0,61.0,901.0
5.626104,-42.0,69.0,970.0
5.632776,-49.0,64.0,1016.0
5.639436,-63.0,63.0,1077.0
5.646108,-70.0,73.0,1140.0
5.652768,-74.0,78.0,1189.0
5.65944,-84.0,82.0,1229.0
5.6661,-94.0,83.0,1259.0
5.672772,-78.0,89.0,1289.0
5.679428,-84.0,90.0,1323.0
5.686104,-91.0,90.0,1321.0
5.69276,-81.0,88.0,1324.0
5.6994359999999995,-78.0,86.0,1308.0
5.7061,-82.0,82.0,1264.0
5.712768,-86.0,80.0,1236.0
5.719432,-85.0,81.0,1193.0
5.7261,-72.0,78.0,1145.0
5.7327639999999995,-71.0,65.0,1092.0
5.739432,-56.0,65.0,1031.0
5.746096,-47.0,61.0,972.0
5.752764,-45.0,57.0,915.0
5.759428,-33.0,52.0,861.0
5.766096,-35.0,56.0,825.0
5.772764,-34.0,47.0,761.0
5.779428,-32.0,46.0,742.0
5.786092,-17.0,43.0,729.0
5.79276,-11.0,36.0,721.0
5.799424,-19.0,42.0,713.0
5.806088,-23.0,46.0,727.0
5.81276,-19.0,44.0,751.0
5.81942,-23.0,52.0,784.0
5.826092,-31.0,57.0,830.0
5.832756,-37.0,58.0,864.0
5.83942,-43.0,57.0,933.0
5.846084,-47.0,54.0,986.0
5.852756,-74.0,62.0,1030.0
5.85942,-66.0,76.0,1104.0
5.8660879999999995,-66.0,76.0,1156.0
5.872752,-77.0,74.0,1198.0
5.879416,-82.0,83.0,1236.0
5.886084,-77.0,90.0,1268.0
5.892752,-82.0,90.0,1298.0
5.8994159999999995,-84.0,85.0,1315.0
5.906084,-88.0,79.0,1332.0
5.912744,-86.0,85.0,1312.0
5.919416,-97.0,86.0,1265.0
5.926076,-85.0,81.0,1258.0
5.932748,-76.0,83.0,1223.0
5.939408,-77.0,85.0,1163.0
5.94608,-69.0,78.0,1122.0
5.95274,-54.0,74.0,1069.0
5.9594119999999995,-56.0,61.0,1016.0
5.966072,-53.0,56.0,959.0
5.97274,-46.0,55.0,901.0
5.979404,-44.0,57.0,847.0
5.986072,-40.0,54.0,815.0
5.992736,-21.0,51.0,771.0
5.999404,-15.0,50.0,745.0
6.006064,-12.0,42.0,727.0
6.012736,-14.0,45.0,722.0
6.0193959999999995,-16.0,50.0,729.0
6.0260679999999995,-20.0,50.0,737.0
6.032728,-27.0,49.0,766.0
6.039404,-31.0,49.0,807.0
6.046064,-31.0,52.0,842.0
6.052736,-42.0,58.0,888.0
6.059396,-41.0,61.0,954.0
6.066068,-45.0,62.0,1005.0
6.072732,-54.0,71.0,1062.0
6.0794,-60.0,73.0,1121.0
6.08606,-66.0,78.0,1170.0
6.092732,-78.0,79.0,1212.0
6.099396,-83.0,82.0,1242.0
6.106064,-86.0,78.0,1277.0
6.112728,-84.0,84.0,1309.0
6.1193919999999995,-91.0,79.0,1307.0
6.12606,-85.0,87.0,1316.0
6.132724,-85.0,87.0,1289.0
6.139392,-86.0,88.0,1276.0
6.146056,-76.0,82.0,1235.0
6.152724,-75.0,80.0,1201.0
6.159388,-69.0,79.0,1161.0
6.166056,-68.0,73.0,1099.0
6.17272,-59.0,62.0,1045.0
6.179388,-52.0,64.0,995.0
6.186052,-45.0,66.0,931.0
6.19272,-43.0,57.0,878.0
6.199388,-31.0,52.0,838.0
6.206052,-27.0,49.0,806.0
6.21272,-23.0,47.0,769.0
6.219384,-26.0,47.0,735.0
6.226052,-15.0,49.0,724.0
6.232716,-21.0,47.0,731.0
6.23938,-21.0,53.0,732.0
6.246048,-20.0,48.0,752.0
6.2527159999999995,-20.0,46.0,776.0
6.259376,-33.0,53.0,816.0
6.26604,-37.0,52.0,874.0
6.272708,-38.0,55.0,912.0
6.2793719999999995,-49.0,61.0,970.0
6.28604,-57.0,61.0,1025.0
6.292704,-60.0,70.0,1074.0
6.299376,-70.0,78.0,1138.0
6.306036,-70.0,81.0,1180.0
6.312708,-78.0,83.0,1218.0
6.319368,-77.0,83.0,1249.0
6.32604,-74.0,84.0,1286.0
6.332696,-93.0,84.0,1285.0
6.339372,-84.0,88.0,1310.0
6.346028,-87.0,90.0,1298.0
6.352704,-86.0,90.0,1282.0
6.359364,-82.0,83.0,1256.0
6.366036,-76.0,83.0,1216.0
6.3726959999999995,-78.0,77.0,1190.0
6.3793679999999995,-70.0,77.0,1129.0
6.386032,-60.0,68.0,1089.0
6.3927,-56.0,70.0,1026.0
6.399364,-54.0,70.0,969.0
6.406032,-46.0,61.0,917.0
6.4127,-36.0,53.0,857.0
6.419364,-35.0,54.0,819.0
6.426028,-32.0,51.0,788.0
6.432696,-21.0,46.0,759.0
6.439364,-21.0,51.0,747.0
6.446028,-16.0,49.0,733.0
6.4526959999999995,-18.0,52.0,738.0
6.45936,-9.0,47.0,748.0
6.466028,-18.0,40.0,768.0
6.472692,-31.0,51.0,796.0
6.479356,-36.0,47.0,843.0
6.4860240000000005,-43.0,57.0,880.0
6.492687999999999,-53.0,57.0,936.0
6.499356000000001,-51.0,73.0,994.0
6.5060199999999995,-57.0,73.0,1044.0
6.512688000000001,-61.0,75.0,1105.0
6.519352,-61.0,78.0,1150.0
6.526019999999999,-70.0,78.0,1194.0
6.532688,-72.0,78.0,1234.0
6.539351999999999,-84.0,81.0,1263.0
6.546016,-88.0,86.0,1284.0
6.552683999999999,-92.0,85.0,1293.0
6.5593520000000005,-95.0,84.0,1290.0
6.566015999999999,-87.0,89.0,1288.0
6.57268,-76.0,85.0,1267.0
6.5793479999999995,-77.0,79.0,1232.0
6.586012,-76.0,83.0,1214.0
6.592672,-65.0,84.0,1164.0
6.599347999999999,-63.0,73.0,1119.0
6.606007999999999,-60.0,73.0,1062.0
6.612679999999999,-61.0,62.0,1010.0
6.619339999999999,-51.0,65.0,956.0
6.626011999999999,-50.0,53.0,892.0
6.6326719999999995,-39.0,51.0,854.0
6.6393439999999995,-34.0,52.0,831.0
6.645999999999999,-22.0,53.0,777.0
6.652671999999999,-18.0,49.0,754.0
6.659331999999999,-11.0,47.0,739.0
6.666003999999999,-18.0,53.0,731.0
6.672663999999999,-17.0,47.0,747.0
6.679335999999999,-23.0,46.0,760.0
6.685995999999999,-24.0,47.0,792.0
6.692667999999999,-37.0,49.0,817.0
6.699332,-37.0,49.0,853.0
6.7059999999999995,-45.0,60.0,898.0
6.712664,-49.0,60.0,962.0
6.719332,-53.0,74.0,1003.0
6.725999999999999,-59.0,73.0,1070.0
6.732664,-62.0,72.0,1109.0
6.739331999999999,-70.0,77.0,1160.0
6.745996,-74.0,79.0,1201.0
6.752663999999999,-83.0,83.0,1229.0
6.759328,-81.0,80.0,1265.0
6.7659959999999995,-81.0,81.0,1291.0
6.77266,-84.0,86.0,1289.0
6.779323999999999,-89.0,86.0,1286.0
6.785995999999999,-80.0,79.0,1277.0
6.79266,-77.0,83.0,1250.0
6.799324,-76.0,85.0,1226.0
6.805992,-71.0,75.0,1180.0
6.8126560000000005,-71.0,73.0,1151.0
6.819324,-63.0,70.0,1102.0
6.825988000000001,-62.0,71.0,1036.0
6.832656,-53.0,64.0,992.0
6.839320000000001,-51.0,57.0,942.0
6.845988,-40.0,57.0,887.0
6.852651999999999,-36.0,54.0,846.0
6.85932,-32.0,51.0,808.0
6.865983999999999,-25.0,49.0,771.0
6.872652,-22.0,51.0,753.0
6.879315999999999,-20.0,49.0,744.0
6.8859840000000005,-25.0,46.0,742.0
6.892647999999999,-24.0,49.0,750.0
6.899316000000001,-18.0,52.0,765.0
6.90598,-24.0,57.0,800.0
6.912647999999999,-30.0,51.0,837.0
6.919316,-33.0,58.0,875.0
6.925979999999999,-44.0,60.0,937.0
6.932648,-48.0,63.0,981.0
6.939311999999999,-58.0,61.0,1037.0
6.945971999999999,-61.0,74.0,1079.0
6.952643999999999,-69.0,76.0,1125.0
6.9593039999999995,-75.0,74.0,1177.0
6.9659759999999995,-70.0,76.0,1211.0
6.972636,-77.0,84.0,1250.0
6.979308,-80.0,90.0,1263.0
6.985968,-74.0,87.0,1282.0
6.992635999999999,-87.0,87.0,1282.0
6.9993,-88.0,88.0,1278.0
7.005972,-78.0,79.0,1258.0
7.012632,-83.0,79.0,1231.0
7.019304,-75.0,76.0,1205.0
7.025964,-71.0,78.0,1165.0
7.032636,-65.0,74.0,1132.0
7.039296,-62.0,67.0,1060.0
7.045968,-54.0,64.0,1023.0
7.052628,-48.0,63.0,966.0
7.0593,-45.0,56.0,917.0
7.065963999999999,-43.0,52.0,864.0
7.0726320000000005,-30.0,52.0,831.0
7.0793,-32.0,50.0,794.0
7.085964000000001,-29.0,46.0,771.0
7.0926279999999995,-19.0,50.0,752.0
7.099296000000001,-20.0,48.0,743.0
7.10596,-21.0,50.0,752.0
7.112627999999999,-18.0,51.0,764.0
7.119292,-24.0,50.0,795.0
7.125959999999999,-27.0,50.0,817.0
7.132624,-36.0,55.0,847.0
7.139291999999999,-42.0,61.0,904.0
7.1459600000000005,-46.0,62.0,954.0
7.152623999999999,-53.0,68.0,1004.0
7.159292000000001,-64.0,64.0,1039.0
7.1659559999999995,-63.0,78.0,1100.0
7.17262,-70.0,75.0,1150.0
7.179288,-70.0,75.0,1193.0
7.185955999999999,-74.0,79.0,1226.0
7.19262,-80.0,79.0,1248.0
7.1992840000000005,-80.0,80.0,1269.0
7.205952,-79.0,83.0,1281.0
7.212616000000001,-80.0,85.0,1276.0
7.219284,-79.0,87.0,1269.0
7.2259519999999995,-79.0,85.0,1245.0
7.232616,-75.0,82.0,1224.0
7.239279999999999,-72.0,80.0,1190.0
7.245948,-72.0,76.0,1151.0
7.252616,-67.0,71.0,1099.0
7.25928,-58.0,72.0,1046.0
7.265948,-55.0,65.0,992.0
7.2726120000000005,-49.0,61.0,957.0
7.27928,-43.0,55.0,901.0
7.28594,-38.0,50.0,859.0
7.292612,-29.0,53.0,829.0
7.299272,-24.0,52.0,786.0
7.305944,-18.0,48.0,759.0
7.312604,-19.0,51.0,756.0
7.319276,-22.0,46.0,755.0
7.325932,-23.0,49.0,753.0
7.332604,-27.0,47.0,785.0
7.339264,-30.0,48.0,804.0
7.345936,-34.0,51.0,830.0
7.352600000000001,-36.0,57.0,879.0
7.359268,-39.0,60.0,914.0
7.365928,-51.0,61.0,973.0
7.3726,-57.0,72.0,1020.0
7.37926,-61.0,72.0,1068.0
7.385932,-62.0,66.0,1120.0
7.392595999999999,-73.0,73.0,1154.0
7.3992640000000005,-73.0,79.0,1200.0
7.405932,-82.0,79.0,1229.0
7.412596000000001,-82.0,77.0,1248.0
7.419264,-78.0,86.0,1264.0
7.425927999999999,-85.0,90.0,1277.0
7.432596,-84.0,88.0,1269.0
7.439259999999999,-81.0,83.0,1247.0
7.445928,-80.0,77.0,1232.0
7.452591999999999,-76.0,83.0,1211.0
7.4592600000000004,-73.0,76.0,1180.0
7.465923999999999,-72.0,73.0,1128.0
7.472592000000001,-63.0,72.0,1093.0
7.4792559999999995,-61.0,62.0,1035.0
7.485924000000001,-56.0,60.0,987.0
7.492588,-42.0,56.0,945.0
7.499255999999999,-41.0,54.0,883.0
7.50592,-37.0,54.0,853.0
7.512587999999999,-27.0,51.0,814.0
7.519252,-30.0,50.0,782.0
7.525919999999999,-22.0,50.0,768.0
7.532584,-20.0,47.0,756.0
7.539251999999999,-20.0,50.0,764.0
7.545920000000001,-21.0,48.0,770.0
7.5525839999999995,-30.0,49.0,787.0
7.559248,-30.0,50.0,813.0
7.565916,-33.0,51.0,844.0
7.572583999999999,-36.0,52.0,894.0
7.579248,-49.0,65.0,949.0
7.585915999999999,-56.0,71.0,988.0
7.59258,-57.0,68.0,1033.0
7.5992440000000006,-63.0,75.0,1075.0
7.605912,-66.0,78.0,1127.0
7.612576000000001,-67.0,77.0,1182.0
7.619244,-74.0,78.0,1211.0
7.625904,-74.0,76.0,1234.0
7.632576,-76.0,82.0,1253.0
7.639236,-82.0,78.0,1266.0
7.645908,-83.0,82.0,1264.0
7.6525680000000005,-81.0,78.0,1256.0
7.6592400000000005,-83.0,79.0,1247.0
7.665900000000001,-83.0,80.0,1216.0
7.672572000000001,-75.0,72.0,1192.0
7.679232000000001,-74.0,73.0,1152.0
7.685903999999999,-64.0,76.0,1112.0
7.692563999999999,-63.0,75.0,1050.0
7.699235999999999,-55.0,62.0,1012.0
7.705895999999999,-49.0,59.0,970.0
7.712567999999999,-47.0,60.0,911.0
7.719227999999999,-36.0,58.0,875.0
7.725899999999999,-30.0,52.0,826.0
7.732559999999999,-27.0,56.0,811.0
7.7392319999999994,-27.0,53.0,780.0
7.745900000000001,-26.0,51.0,772.0
7.752564,-21.0,45.0,762.0
7.759231999999999,-23.0,47.0,758.0
7.765896,-31.0,50.0,772.0
7.77256,-24.0,49.0,801.0
7.779228,-27.0,51.0,838.0
7.7858920000000005,-32.0,56.0,859.0
7.79256,-44.0,61.0,917.0
7.799227999999999,-45.0,61.0,964.0
7.805892,-50.0,65.0,1008.0
7.8125599999999995,-58.0,65.0,1053.0
7.819224,-65.0,73.0,1106.0
7.825887999999999,-71.0,70.0,1148.0
7.832556,-74.0,81.0,1183.0
7.839219999999999,-77.0,81.0,1211.0
7.845888,-76.0,77.0,1233.0
7.852551999999999,-78.0,80.0,1248.0
7.8592200000000005,-77.0,83.0,1264.0
7.865883999999999,-81.0,78.0,1259.0
7.872552000000001,-82.0,82.0,1241.0
7.8792159999999996,-80.0,79.0,1232.0
7.885883999999999,-76.0,78.0,1218.0
7.892548,-76.0,76.0,1176.0
7.899215999999999,-70.0,75.0,1139.0
7.90588,-59.0,72.0,1087.0
7.912547999999999,-58.0,74.0,1039.0
7.919212,-55.0,66.0,996.0
7.925879999999999,-42.0,63.0,950.0
7.932548000000001,-40.0,59.0,902.0
7.9392119999999995,-34.0,53.0,857.0
7.945876,-33.0,54.0,827.0
7.952544,-30.0,54.0,801.0
7.959211999999999,-24.0,53.0,786.0
7.965868,-25.0,50.0,770.0
7.97254,-25.0,51.0,771.0
7.9792000000000005,-24.0,45.0,780.0
7.9858720000000005,-26.0,48.0,795.0
7.992532000000001,-28.0,53.0,816.0
7.999204000000001,-34.0,52.0,853.0
8.005863999999999,-40.0,60.0,882.0
8.01254,-41.0,59.0,935.0
8.019195999999999,-48.0,62.0,972.0
8.025872,-54.0,67.0,1024.0
8.032528,-63.0,64.0,1071.0
8.039204,-64.0,71.0,1119.0
8.04586,-68.0,71.0,1167.0
8.052536,-70.0,77.0,1188.0
8.059192,-78.0,85.0,1224.0
8.065864,-82.0,80.0,1240.0
8.072524,-83.0,85.0,1259.0
8.0792,-84.0,89.0,1258.0
8.085863999999999,-80.0,78.0,1255.0
8.092528,-79.0,80.0,1247.0
8.099196,-73.0,80.0,1223.0
8.10586,-75.0,77.0,1186.0
8.112528,-70.0,75.0,1163.0
8.119192,-66.0,75.0,1121.0
8.12586,-64.0,65.0,1068.0
8.132524,-60.0,73.0,1030.0
8.139192,-49.0,62.0,975.0
8.145856,-45.0,59.0,937.0
8.152524,-37.0,59.0,886.0
8.159188,-37.0,55.0,850.0
8.165856,-34.0,48.0,826.0
8.172524,-24.0,50.0,793.0
8.179188,-22.0,51.0,781.0
8.185856,-21.0,54.0,775.0
8.19252,-22.0,51.0,775.0
8.199184,-23.0,51.0,787.0
8.205852,-26.0,52.0,811.0
8.21252,-32.0,53.0,833.0
8.21918,-34.0,58.0,874.0
8.225852,-43.0,54.0,906.0
8.232516,-47.0,55.0,956.0
8.239184,-54.0,65.0,1002.0
8.245848,-55.0,70.0,1038.0
8.252512,-56.0,74.0,1094.0
8.25918,-67.0,77.0,1129.0
8.265844,-68.0,82.0,1167.0
8.272511999999999,-76.0,80.0,1197.0
8.279176,-78.0,86.0,1224.0
8.285843999999999,-74.0,81.0,1247.0
8.292508,-81.0,89.0,1251.0
8.299176,-78.0,90.0,1262.0
8.305836,-80.0,80.0,1243.0
8.312508,-80.0,80.0,1224.0
8.319164,-75.0,77.0,1209.0
8.32584,-74.0,86.0,1173.0
8.332495999999999,-70.0,74.0,1145.0
8.339172,-64.0,69.0,1097.0
8.345832,-58.0,67.0,1055.0
8.352504,-53.0,66.0,1004.0
8.359164,-52.0,62.0,966.0
8.365836,-45.0,58.0,912.0
8.372496,-36.0,62.0,863.0
8.379168,-32.0,54.0,842.0
8.385828,-28.0,54.0,811.0
8.3925,-29.0,52.0,789.0
8.39916,-22.0,46.0,783.0
8.405832,-24.0,53.0,772.0
8.412492,-24.0,52.0,778.0
8.419164,-33.0,53.0,808.0
8.425828,-24.0,54.0,820.0
8.432496,-32.0,55.0,857.0
8.439164,-38.0,55.0,878.0
8.445828,-45.0,55.0,923.0
8.452496,-50.0,59.0,975.0
8.45916,-55.0,61.0,1009.0
8.465824,-54.0,72.0,1060.0
8.472491999999999,-64.0,71.0,1105.0
8.479156,-67.0,77.0,1141.0
8.485824,-72.0,77.0,1173.0
8.492488,-71.0,83.0,1205.0
8.499156,-77.0,85.0,1230.0
8.50582,-75.0,83.0,1243.0
8.512488,-79.0,81.0,1250.0
8.519156,-79.0,86.0,1243.0
8.52582,-78.0,80.0,1240.0
8.532487999999999,-76.0,85.0,1219.0
8.539152,-76.0,76.0,1194.0
8.545816,-74.0,76.0,1163.0
8.552484,-59.0,74.0,1118.0
8.559148,-59.0,65.0,1079.0
8.565816,-58.0,63.0,1033.0
8.57248,-56.0,63.0,993.0
8.579148,-49.0,63.0,945.0
8.585812,-41.0,61.0,905.0
8.59248,-32.0,56.0,870.0
8.599148,-29.0,51.0,834.0
8.605808,-28.0,52.0,816.0
8.612476,-27.0,52.0,792.0
8.619144,-21.0,49.0,798.0
8.625808,-30.0,47.0,790.0
8.632476,-30.0,48.0,794.0
8.63914,-30.0,55.0,809.0
8.645804,-29.0,52.0,840.0
8.652472,-34.0,51.0,864.0
8.659136,-42.0,64.0,893.0
8.665804,-44.0,57.0,944.0
8.672464,-49.0,58.0,990.0
8.679136,-54.0,63.0,1035.0
8.685796,-57.0,66.0,1069.0
8.692468,-63.0,81.0,1117.0
8.699128,-74.0,75.0,1156.0
8.7058,-69.0,79.0,1184.0
8.71246,-75.0,79.0,1221.0
8.719132,-75.0,79.0,1231.0
8.725795999999999,-77.0,82.0,1237.0
8.732464,-80.0,80.0,1241.0
8.739124,-77.0,85.0,1242.0
8.745796,-80.0,85.0,1220.0
8.752456,-70.0,80.0,1205.0
8.759128,-71.0,78.0,1172.0
8.765792,-68.0,78.0,1145.0
8.772464,-65.0,76.0,1105.0
8.779124,-59.0,65.0,1055.0
8.785796,-57.0,65.0,1016.0
8.792456,-51.0,68.0,975.0
8.799128,-45.0,62.0,932.0
8.805792,-40.0,56.0,894.0
8.81246,-35.0,57.0,857.0
8.81912,-31.0,51.0,835.0
8.825792,-27.0,50.0,801.0
8.832452,-30.0,49.0,790.0
8.839124,-18.0,51.0,788.0
8.845788,-24.0,55.0,794.0
8.852456,-23.0,53.0,799.0
8.859119999999999,-31.0,50.0,822.0
8.865788,-27.0,52.0,846.0
8.872452,-36.0,56.0,880.0
8.87912,-42.0,55.0,920.0
8.885784,-46.0,61.0,966.0
8.892452,-52.0,61.0,1007.0
8.899116,-59.0,72.0,1039.0
8.905784,-65.0,71.0,1088.0
8.912448,-67.0,78.0,1135.0
8.919112,-70.0,73.0,1165.0
8.92578,-71.0,77.0,1196.0
8.932444,-80.0,80.0,1212.0
8.939112,-78.0,82.0,1234.0
8.945776,-76.0,78.0,1249.0
8.952444,-76.0,85.0,1241.0
8.959108,-80.0,89.0,1231.0
8.965776,-78.0,79.0,1218.0
8.97244,-74.0,80.0,1195.0
8.979108,-68.0,73.0,1159.0
8.985768,-65.0,68.0,1127.0
8.99244,-59.0,76.0,1079.0
8.9991,-57.0,69.0,1045.0
9.005768,-54.0,69.0,1003.0
9.012432,-49.0,63.0,962.0
9.019104,-44.0,61.0,931.0
9.025764,-34.0,56.0,868.0
9.032436,-37.0,56.0,842.0
9.039095999999999,-29.0,51.0,826.0
9.045767999999999,-28.0,56.0,803.0
9.052424,-29.0,48.0,793.0
9.059099999999999,-25.0,52.0,790.0
9.06576,-23.0,55.0,796.0
9.072432,-29.0,52.0,817.0
9.079092,-32.0,53.0,829.0
9.085764,-38.0,58.0,860.0
9.092424,-42.0,55.0,890.0
9.099096,-45.0,57.0,941.0
9.105751999999999,-46.0,59.0,983.0
9.112428,-51.0,66.0,1019.0
9.119092,-61.0,69.0,1054.0
9.12576,-63.0,69.0,1110.0
9.132424,-64.0,77.0,1152.0
9.139088,-72.0,78.0,1179.0
9.14576,-74.0,80.0,1203.0
9.152424,-74.0,86.0,1219.0
9.159092,-74.0,78.0,1236.0
9.165756,-79.0,83.0,1235.0
9.172419999999999,-73.0,82.0,1233.0
9.179088,-77.0,84.0,1225.0
9.185751999999999,-75.0,77.0,1211.0
9.19242,-71.0,82.0,1175.0
9.199088,-63.0,77.0,1148.0
9.205752,-66.0,69.0,1108.0
9.212416,-63.0,70.0,1070.0
9.219084,-55.0,62.0,1027.0
9.225748,-49.0,64.0,986.0
9.232416,-45.0,56.0,949.0
9.23908,-40.0,57.0,903.0
9.245747999999999,-37.0,56.0,870.0
9.252412,-36.0,56.0,839.0
9.259079999999999,-31.0,52.0,819.0
9.265748,-22.0,53.0,805.0
9.272412,-25.0,51.0,792.0
9.279076,-28.0,53.0,793.0
9.285744,-31.0,52.0,811.0
9.292408,-31.0,53.0,829.0
9.299076,-29.0,54.0,846.0
9.30574,-34.0,57.0,877.0
9.312408,-40.0,52.0,909.0
9.319072,-47.0,60.0,960.0
9.325732,-54.0,64.0,994.0
9.332408,-50.0,67.0,1027.0
9.339068,-61.0,71.0,1081.0
9.345736,-66.0,74.0,1115.0
9.3524,-69.0,74.0,1155.0
9.359072,-72.0,81.0,1179.0
9.365727999999999,-75.0,79.0,1206.0
9.372399999999999,-78.0,77.0,1223.0
9.379059999999999,-77.0,77.0,1225.0
9.385731999999999,-78.0,78.0,1226.0
9.392392,-77.0,81.0,1228.0
9.399068,-74.0,77.0,1211.0
9.405724,-72.0,81.0,1185.0
9.4124,-75.0,81.0,1167.0
9.419056,-66.0,74.0,1133.0
9.425728,-64.0,70.0,1090.0
9.432388,-57.0,72.0,1049.0
9.43906,-56.0,71.0,1019.0
9.445727999999999,-49.0,66.0,970.0
9.452392,-41.0,61.0,923.0
9.45906,-39.0,60.0,895.0
9.465724,-38.0,53.0,845.0
9.472392,-30.0,53.0,838.0
9.47906,-28.0,55.0,821.0
9.485724,-30.0,50.0,805.0
9.492392,-32.0,50.0,795.0
9.499051999999999,-28.0,51.0,796.0
9.505723999999999,-27.0,57.0,812.0
9.512388,-32.0,53.0,832.0
9.519055999999999,-32.0,54.0,859.0
9.52572,-36.0,57.0,889.0
9.532384,-42.0,62.0,928.0
9.539052,-52.0,67.0,973.0
9.54572,-53.0,65.0,1007.0
9.552384,-57.0,69.0,1044.0
9.559052,-61.0,65.0,1097.0
9.565716,-60.0,76.0,1141.0
9.572384,-67.0,83.0,1160.0
9.579048,-72.0,76.0,1191.0
9.585716,-76.0,80.0,1215.0
9.59238,-77.0,86.0,1216.0
9.599048,-79.0,79.0,1220.0
9.605708,-73.0,82.0,1226.0
9.612376,-73.0,78.0,1216.0
9.619044,-75.0,84.0,1209.0
9.625708,-74.0,77.0,1184.0
9.632375999999999,-70.0,76.0,1146.0
9.639044,-64.0,75.0,1120.0
9.645707999999999,-60.0,73.0,1076.0
9.652372,-56.0,71.0,1035.0
9.65904,-51.0,59.0,997.0
9.665708,-53.0,65.0,958.0
9.672372,-43.0,59.0,918.0
9.679032,-42.0,57.0,881.0
9.685704,-31.0,60.0,858.0
9.692364,-35.0,49.0,831.0
9.699031999999999,-26.0,53.0,816.0
9.705696,-30.0,50.0,804.0
9.712368,-27.0,49.0,806.0
9.719028,-26.0,53.0,807.0
9.7257,-32.0,54.0,822.0
9.73236,-36.0,52.0,846.0
9.739032,-35.0,52.0,872.0
9.745692,-40.0,54.0,913.0
9.752364,-43.0,61.0,953.0
9.75902,-49.0,72.0,986.0
9.765696,-54.0,69.0,1027.0
9.772356,-56.0,68.0,1062.0
9.779028,-66.0,75.0,1110.0
9.785688,-67.0,78.0,1140.0
9.79236,-68.0,78.0,1171.0
9.799024,-69.0,77.0,1192.0
9.805692,-77.0,80.0,1214.0
9.812356,-79.0,87.0,1223.0
9.819023999999999,-73.0,78.0,1230.0
9.825692,-72.0,80.0,1226.0
9.832355999999999,-73.0,81.0,1211.0
9.839024,-72.0,83.0,1196.0
9.845687999999999,-67.0,80.0,1161.0
9.852356,-71.0,74.0,1136.0
9.85902,-58.0,72.0,1105.0
9.865684,-62.0,74.0,1057.0
9.872352,-58.0,62.0,1017.0
9.879016,-54.0,62.0,987.0
9.885684,-49.0,56.0,945.0
9.892348,-39.0,55.0,903.0
9.899016,-37.0,58.0,876.0
9.90568,-35.0,53.0,848.0
9.912348,-32.0,48.0,826.0
9.919012,-30.0,51.0,812.0
9.92568,-30.0,54.0,799.0
9.932344,-29.0,53.0,814.0
9.939012,-29.0,54.0,818.0
9.94568,-28.0,56.0,834.0
9.952344,-36.0,57.0,853.0
9.959007999999999,-37.0,62.0,903.0
9.965676,-40.0,64.0,919.0
9.972339999999999,-45.0,63.0,957.0
9.979008,-53.0,63.0,999.0
9.985672,-55.0,68.0,1041.0
9.99234,-58.0,72.0,1093.0
9.999008,-64.0,78.0,1114.0
10.005668,-70.0,75.0,1153.0
10.012336,-69.0,78.0,1178.0
10.019,-72.0,78.0,1200.0
10.025668,-76.0,79.0,1216.0
10.032332,-74.0,81.0,1220.0
10.039004,-75.0,88.0,1219.0
10.045664,-77.0,80.0,1206.0
10.052336,-77.0,80.0,1203.0
10.058996,-70.0,75.0,1182.0
10.065668,-67.0,71.0,1155.0
10.072324,-66.0,77.0,1123.0
10.078996,-62.0,74.0,1086.0
10.085659999999999,-59.0,74.0,1045.0
10.092328,-57.0,67.0,1007.0
10.098988,-48.0,59.0,975.0
10.10566,-44.0,55.0,927.0
10.11232,-41.0,55.0,891.0
10.118992,-34.0,59.0,859.0
10.125652,-29.0,53.0,842.0
10.132324,-31.0,54.0,827.0
10.138992,-26.0,51.0,815.0
10.145655999999999,-30.0,50.0,817.0
10.152324,-27.0,52.0,818.0
10.158987999999999,-30.0,51.0,835.0
10.165656,-37.0,53.0,845.0
10.17232,-37.0,54.0,873.0
10.178988,-41.0,60.0,906.0
10.185652,-44.0,65.0,940.0
10.19232,-47.0,60.0,977.0
10.198988,-50.0,64.0,1022.0
10.205652,-56.0,69.0,1057.0
10.21232,-62.0,74.0,1103.0
10.218983999999999,-68.0,72.0,1130.0
10.225648,-67.0,77.0,1158.0
10.232315999999999,-73.0,78.0,1176.0
10.23898,-74.0,78.0,1200.0
10.245648,-77.0,80.0,1209.0
10.252312,-75.0,82.0,1217.0
10.25898,-75.0,78.0,1207.0
10.265644,-70.0,76.0,1201.0
10.272312,-77.0,78.0,1200.0
10.278979999999999,-71.0,78.0,1165.0
10.285644,-70.0,76.0,1142.0
10.292311999999999,-67.0,75.0,1102.0
10.298976,-58.0,73.0,1068.0
10.30564,-57.0,66.0,1021.0
10.312308,-51.0,62.0,990.0
10.318972,-44.0,57.0,954.0
10.32564,-41.0,58.0,911.0
10.332308,-36.0,60.0,876.0
10.338972,-38.0,59.0,856.0
10.345635999999999,-34.0,55.0,836.0
10.352304,-32.0,52.0,826.0
10.35896,-30.0,52.0,820.0
10.365636,-29.0,51.0,817.0
10.372292,-29.0,52.0,827.0
10.378968,-33.0,53.0,837.0
10.385624,-34.0,53.0,862.0
10.3923,-39.0,58.0,881.0
10.398959999999999,-38.0,61.0,925.0
10.405631999999999,-47.0,62.0,962.0
10.412291999999999,-52.0,62.0,992.0
10.418963999999999,-54.0,70.0,1036.0
10.425624,-59.0,66.0,1068.0
10.432296,-63.0,74.0,1100.0
10.438956,-68.0,75.0,1135.0
10.445628,-67.0,76.0,1161.0
10.452288,-69.0,76.0,1195.0
10.45896,-71.0,82.0,1199.0
10.46562,-72.0,75.0,1211.0
10.472292,-73.0,84.0,1224.0
10.478956,-75.0,78.0,1205.0
10.485624,-69.0,77.0,1201.0
10.492291999999999,-72.0,77.0,1174.0
10.498956,-68.0,79.0,1155.0
10.505624,-65.0,75.0,1128.0
10.512284,-62.0,73.0,1090.0
10.518956,-60.0,70.0,1043.0
10.52562,-55.0,63.0,1018.0
10.532283999999999,-46.0,63.0,978.0
10.538952,-48.0,58.0,942.0
10.545615999999999,-39.0,54.0,907.0
10.552284,-36.0,58.0,877.0
10.558948,-34.0,54.0,860.0
10.565616,-27.0,55.0,834.0
10.57228,-32.0,50.0,824.0
10.578948,-31.0,57.0,819.0
10.585616,-24.0,50.0,823.0
10.59228,-36.0,54.0,839.0
10.598944,-35.0,51.0,854.0
10.605611999999999,-39.0,55.0,878.0
10.612276,-40.0,55.0,897.0
10.618943999999999,-44.0,57.0,945.0
10.625612,-44.0,60.0,972.0
10.632276,-54.0,66.0,1007.0
10.63894,-56.0,70.0,1045.0
10.645608,-57.0,68.0,1076.0
10.652272,-67.0,77.0,1117.0
10.65894,-69.0,77.0,1141.0
10.665607999999999,-63.0,76.0,1177.0
10.672272,-71.0,76.0,1202.0
10.678936,-77.0,78.0,1202.0
10.685604,-73.0,75.0,1210.0
10.692271999999999,-78.0,75.0,1212.0
10.698928,-74.0,83.0,1197.0
10.7056,-73.0,79.0,1185.0
10.712264,-71.0,79.0,1167.0
10.718936,-67.0,76.0,1129.0
10.725591999999999,-68.0,78.0,1114.0
10.732268,-57.0,78.0,1073.0
10.738928,-60.0,68.0,1035.0
10.745595999999999,-56.0,63.0,1000.0
10.75226,-50.0,59.0,963.0
10.758928,-43.0,58.0,922.0
10.765588,-41.0,59.0,892.0
10.772264,-38.0,58.0,869.0
10.77892,-36.0,52.0,850.0
10.785596,-30.0,52.0,830.0
10.792252,-30.0,51.0,825.0
10.798928,-30.0,51.0,824.0
10.805584,-25.0,52.0,828.0
10.81226,-28.0,52.0,841.0
10.818923999999999,-36.0,55.0,859.0
10.825592,-35.0,58.0,880.0
10.832256,-36.0,57.0,913.0
10.838924,-45.0,62.0,962.0
10.845588,-51.0,60.0,989.0
10.852252,-55.0,65.0,1015.0
10.85892,-59.0,67.0,1052.0
10.865587999999999,-61.0,69.0,1096.0
10.872252,-64.0,75.0,1130.0
10.878919999999999,-64.0,79.0,1149.0
10.885584,-71.0,76.0,1181.0
10.892252,-69.0,80.0,1183.0
10.898916,-77.0,83.0,1202.0
10.905584,-72.0,80.0,1206.0
10.912244,-71.0,84.0,1206.0
10.918916,-73.0,78.0,1198.0
10.92558,-72.0,76.0,1179.0
10.932248,-65.0,75.0,1152.0
10.938912,-62.0,73.0,1137.0
10.94558,-65.0,72.0,1094.0
10.952244,-58.0,68.0,1057.0
10.958908,-55.0,65.0,1034.0
10.965576,-50.0,58.0,989.0
10.97224,-47.0,57.0,955.0
10.978908,-41.0,59.0,910.0
10.985572,-40.0,56.0,888.0
10.992239999999999,-32.0,57.0,854.0
10.998904,-34.0,51.0,844.0
11.005571999999999,-32.0,51.0,835.0
11.01224,-36.0,52.0,829.0
11.018904,-26.0,51.0,831.0
11.025572,-30.0,51.0,838.0
11.032236,-35.0,54.0,854.0
11.038891999999999,-35.0,58.0,873.0
11.045568,-39.0,57.0,901.0
11.052228,-44.0,54.0,919.0
11.0589,-50.0,58.0,968.0
11.06556,-46.0,64.0,1000.0
11.072232,-52.0,63.0,1037.0
11.078892,-63.0,68.0,1068.0
11.085564,-66.0,73.0,1111.0
11.092224,-69.0,70.0,1139.0
11.098896,-70.0,81.0,1161.0
11.105556,-71.0,76.0,1185.0
11.112228,-74.0,80.0,1187.0
11.118888,-71.0,79.0,1201.0
11.12556,-74.0,77.0,1202.0
11.13222,-69.0,75.0,1196.0
11.138892,-68.0,81.0,1182.0
11.145552,-69.0,80.0,1169.0
11.152224,-65.0,74.0,1145.0
11.158892,-61.0,71.0,1109.0
11.165556,-61.0,72.0,1084.0
11.172224,-55.0,70.0,1042.0
11.178887999999999,-53.0,63.0,1011.0
11.185552,-46.0,61.0,979.0
11.192219999999999,-43.0,65.0,947.0
11.198884,-40.0,62.0,910.0
11.205551999999999,-36.0,55.0,872.0
11.212216,-36.0,59.0,858.0
11.218884,-36.0,52.0,842.0
11.225548,-27.0,54.0,830.0
11.232216,-30.0,50.0,834.0
11.238884,-32.0,53.0,834.0
11.245548,-34.0,57.0,853.0
11.252215999999999,-34.0,55.0,856.0
11.25888,-35.0,60.0,886.0
11.265547999999999,-37.0,55.0,915.0
11.272212,-47.0,55.0,954.0
11.278876,-50.0,63.0,982.0
11.285544,-47.0,60.0,1014.0
11.292208,-55.0,71.0,1046.0
11.298876,-61.0,72.0,1076.0
11.305539999999999,-61.0,74.0,1122.0
11.312208,-66.0,79.0,1144.0
11.318876,-71.0,79.0,1164.0
11.32554,-73.0,76.0,1182.0
11.332203999999999,-70.0,77.0,1189.0
11.338872,-74.0,77.0,1194.0
11.34554,-75.0,79.0,1190.0
11.3522,-73.0,81.0,1185.0
11.358868,-69.0,76.0,1171.0
11.365536,-68.0,76.0,1159.0
11.372204,-66.0,78.0,1133.0
11.37886,-62.0,75.0,1100.0
11.385532,-58.0,67.0,1068.0
11.392192,-53.0,70.0,1026.0
11.398868,-52.0,65.0,1004.0
11.405528,-49.0,58.0,965.0
11.4122,-42.0,63.0,933.0
11.418856,-41.0,59.0,891.0
11.425532,-34.0,59.0,871.0
11.432191999999999,-33.0,53.0,854.0
11.43886,-33.0,52.0,837.0
11.445523999999999,-30.0,52.0,834.0
11.452192,-30.0,53.0,834.0
11.458852,-29.0,54.0,841.0
11.465524,-35.0,51.0,852.0
11.472184,-33.0,52.0,871.0
11.478856,-38.0,55.0,895.0
11.48552,-40.0,60.0,930.0
11.492192,-47.0,63.0,963.0
11.498856,-46.0,63.0,990.0
11.505524,-54.0,70.0,1030.0
11.512188,-59.0,73.0,1056.0
11.518856,-60.0,73.0,1098.0
11.52552,-64.0,73.0,1125.0
11.532183999999999,-70.0,74.0,1150.0
11.538852,-72.0,76.0,1168.0
11.545516,-71.0,82.0,1178.0
11.552184,-74.0,84.0,1198.0
11.558848,-72.0,79.0,1198.0
11.565515999999999,-74.0,83.0,1189.0
11.57218,-72.0,81.0,1176.0
11.578847999999999,-73.0,79.0,1163.0
11.585512,-66.0,75.0,1146.0
11.592179999999999,-67.0,67.0,1120.0
11.598848,-57.0,69.0,1094.0
11.605512,-62.0,74.0,1043.0
11.612176,-58.0,66.0,1016.0
11.618844,-51.0,60.0,984.0
11.625512,-46.0,56.0,957.0
11.632176,-37.0,60.0,912.0
11.638843999999999,-42.0,56.0,881.0
11.645508,-36.0,54.0,865.0
11.652175999999999,-36.0,54.0,857.0
11.658835999999999,-31.0,53.0,838.0
11.665504,-29.0,55.0,835.0
11.672172,-34.0,50.0,833.0
11.678836,-31.0,51.0,844.0
11.685504,-37.0,52.0,866.0
11.692172,-33.0,59.0,888.0
11.698836,-38.0,58.0,912.0
11.705504,-45.0,57.0,941.0
11.712168,-45.0,70.0,976.0
11.718828,-48.0,57.0,1005.0
11.7255,-58.0,75.0,1037.0
11.73216,-54.0,72.0,1075.0
11.738832,-61.0,74.0,1113.0
11.745492,-69.0,77.0,1135.0
11.752164,-70.0,77.0,1165.0
11.758823999999999,-70.0,79.0,1179.0
11.765495999999999,-70.0,81.0,1179.0
11.772155999999999,-70.0,81.0,1191.0
11.778827999999999,-71.0,84.0,1196.0
11.785487999999999,-71.0,85.0,1189.0
11.792156,-70.0,77.0,1181.0
11.79882,-62.0,75.0,1149.0
11.805492,-64.0,74.0,1123.0
11.812152,-59.0,65.0,1104.0
11.818824,-60.0,68.0,1070.0
11.825484,-56.0,71.0,1036.0
11.832156,-54.0,65.0,993.0
11.83882,-49.0,63.0,975.0
11.845488,-43.0,61.0,944.0
11.852152,-41.0,54.0,903.0
11.85882,-38.0,53.0,885.0
11.865488,-35.0,56.0,856.0
11.872152,-34.0,50.0,852.0
11.878816,-32.0,55.0,840.0
11.885484,-28.0,53.0,836.0
11.892147999999999,-33.0,52.0,844.0
11.898812,-36.0,53.0,858.0
11.905484,-35.0,55.0,871.0
11.912144,-37.0,58.0,900.0
11.918811999999999,-42.0,59.0,921.0
11.92548,-48.0,60.0,963.0
11.932144,-47.0,64.0,986.0
11.938812,-51.0,63.0,1017.0
11.94548,-57.0,65.0,1052.0
11.952143999999999,-61.0,67.0,1092.0
11.958808,-62.0,74.0,1118.0
11.965475999999999,-64.0,75.0,1145.0
11.972144,-67.0,78.0,1172.0
11.978807999999999,-71.0,75.0,1174.0
11.985476,-72.0,80.0,1181.0
11.99214,-71.0,81.0,1188.0
11.998804,-66.0,78.0,1182.0
12.005472,-72.0,81.0,1185.0
12.012136,-69.0,73.0,1161.0
12.018804,-67.0,73.0,1139.0
12.025468,-63.0,72.0,1119.0
12.032136,-63.0,71.0,1088.0
12.0388,-56.0,68.0,1053.0
12.045468,-55.0,67.0,1018.0
12.052135999999999,-49.0,65.0,993.0
12.058792,-47.0,60.0,963.0
12.065468,-40.0,60.0,938.0
12.072128,-40.0,52.0,901.0
12.0788,-35.0,52.0,878.0
12.085455999999999,-31.0,57.0,861.0
12.092127999999999,-31.0,57.0,852.0
12.098787999999999,-32.0,54.0,849.0
12.105459999999999,-32.0,54.0,848.0
12.112124,-30.0,55.0,853.0
12.118796,-32.0,55.0,864.0
12.125452,-38.0,57.0,890.0
12.132128,-43.0,59.0,912.0
12.138784,-42.0,61.0,950.0
12.145456,-46.0,63.0,971.0
12.152116,-49.0,62.0,1002.0
12.158788,-54.0,66.0,1046.0
12.165448,-57.0,73.0,1059.0
12.17212,-57.0,70.0,1094.0
12.178784,-65.0,68.0,1134.0
12.185456,-69.0,73.0,1138.0
12.192116,-69.0,76.0,1163.0
12.198788,-73.0,81.0,1180.0
12.205448,-71.0,81.0,1184.0
12.212119999999999,-70.0,77.0,1178.0
12.218784,-67.0,78.0,1180.0
12.225451999999999,-66.0,83.0,1166.0
12.232111999999999,-69.0,78.0,1153.0
12.238783999999999,-68.0,72.0,1135.0
12.245448,-66.0,75.0,1115.0
12.252116,-60.0,72.0,1077.0
12.25878,-57.0,69.0,1037.0
12.265448,-55.0,73.0,1010.0
12.272112,-44.0,61.0,978.0
12.27878,-42.0,58.0,950.0
12.285444,-46.0,56.0,919.0
12.292112,-37.0,54.0,885.0
12.298772,-38.0,55.0,871.0
12.305444,-39.0,50.0,862.0
12.312108,-38.0,55.0,851.0
12.318776,-29.0,52.0,850.0
12.32544,-36.0,57.0,853.0
12.332108,-38.0,52.0,861.0
12.338772,-42.0,55.0,873.0
12.345436,-41.0,51.0,896.0
12.352103999999999,-40.0,61.0,916.0
12.358768,-47.0,61.0,958.0
12.365435999999999,-49.0,65.0,985.0
12.3721,-54.0,64.0,1015.0
12.378767999999999,-58.0,67.0,1045.0
12.385432,-57.0,65.0,1069.0
12.3921,-61.0,71.0,1111.0
12.39876,-65.0,75.0,1128.0
12.405432,-67.0,79.0,1156.0
12.412092,-72.0,75.0,1174.0
12.418764,-72.0,78.0,1183.0
12.425424,-68.0,77.0,1181.0
12.432096,-71.0,84.0,1178.0
12.438752,-71.0,79.0,1174.0
12.445424,-70.0,78.0,1164.0
12.452088,-68.0,69.0,1143.0
12.458756,-58.0,71.0,1121.0
12.46542,-61.0,73.0,1092.0
12.472092,-62.0,70.0,1057.0
12.478752,-56.0,64.0,1030.0
12.48542,-51.0,61.0,999.0
12.492084,-49.0,60.0,966.0
12.498756,-43.0,62.0,938.0
12.505416,-38.0,57.0,908.0
12.512088,-40.0,58.0,888.0
12.518756,-37.0,58.0,863.0
12.52542,-35.0,59.0,861.0
12.532084,-34.0,54.0,852.0
12.538751999999999,-29.0,53.0,848.0
12.545416,-36.0,54.0,853.0
12.552083999999999,-33.0,57.0,868.0
12.558748,-37.0,57.0,886.0
12.565415999999999,-38.0,55.0,908.0
12.572084,-44.0,57.0,942.0
12.578748,-49.0,63.0,972.0
12.585416,-50.0,64.0,995.0
12.59208,-54.0,73.0,1024.0
12.598748,-59.0,69.0,1059.0
12.605412,-60.0,72.0,1091.0
12.612076,-62.0,71.0,1113.0
12.618744,-65.0,76.0,1142.0
12.625408,-66.0,73.0,1158.0
12.632076,-75.0,78.0,1173.0
12.63874,-66.0,86.0,1172.0
12.645408,-71.0,78.0,1172.0
12.652072,-69.0,76.0,1176.0
12.65874,-70.0,74.0,1166.0
12.665403999999999,-65.0,76.0,1148.0
12.672072,-66.0,74.0,1123.0
12.67874,-64.0,72.0,1111.0
12.685404,-56.0,72.0,1070.0
12.692067999999999,-55.0,73.0,1049.0
12.698736,-55.0,65.0,1010.0
12.705404,-48.0,63.0,991.0
12.712068,-44.0,59.0,956.0
12.718732,-41.0,59.0,917.0
12.7254,-42.0,59.0,908.0
12.732068,-42.0,56.0,886.0
12.738724,-34.0,56.0,864.0
12.745396,-33.0,56.0,854.0
12.752056,-30.0,57.0,853.0
12.758728,-35.0,52.0,855.0
12.765388,-37.0,57.0,863.0
12.77206,-38.0,56.0,873.0
12.778724,-43.0,58.0,900.0
12.785392,-41.0,60.0,918.0
12.792052,-46.0,63.0,955.0
12.798727999999999,-48.0,63.0,980.0
12.805384,-53.0,63.0,1011.0
12.812059999999999,-60.0,68.0,1031.0
12.818716,-61.0,70.0,1070.0
12.825388,-60.0,70.0,1102.0
12.832052,-64.0,72.0,1124.0
12.83872,-67.0,76.0,1142.0
12.845384,-65.0,78.0,1161.0
12.852052,-71.0,75.0,1169.0
12.85872,-67.0,78.0,1170.0
12.865383999999999,-72.0,77.0,1170.0
12.872052,-70.0,74.0,1172.0
12.87872,-64.0,75.0,1160.0
12.885384,-67.0,74.0,1140.0
12.892052,-65.0,72.0,1121.0
12.898716,-61.0,70.0,1102.0
12.905384,-56.0,73.0,1061.0
12.912048,-54.0,69.0,1033.0
12.918712,-53.0,61.0,998.0
12.925379999999999,-48.0,67.0,980.0
12.932044,-43.0,57.0,947.0
12.938711999999999,-40.0,63.0,919.0
12.945376,-36.0,60.0,887.0
12.952043999999999,-37.0,59.0,880.0
12.958708,-34.0,54.0,868.0
12.965376,-31.0,55.0,861.0
12.97204,-31.0,54.0,858.0
12.978708,-32.0,49.0,861.0
12.985372,-33.0,54.0,876.0
12.99204,-37.0,57.0,891.0
12.998704,-40.0,61.0,909.0
13.005372,-40.0,58.0,937.0
13.012036,-49.0,56.0,967.0
13.018704,-50.0,62.0,987.0
13.025371999999999,-57.0,63.0,1022.0
13.032036,-54.0,69.0,1042.0
13.038704,-60.0,72.0,1070.0
13.045368,-64.0,71.0,1106.0
13.052031999999999,-66.0,76.0,1126.0
13.0587,-67.0,77.0,1146.0
13.065363999999999,-69.0,77.0,1162.0
13.072032,-69.0,78.0,1170.0
13.078692,-70.0,78.0,1172.0
13.085364,-73.0,74.0,1177.0
13.092024,-69.0,83.0,1159.0
13.098696,-68.0,78.0,1157.0
13.105356,-67.0,80.0,1138.0
13.112028,-60.0,76.0,1107.0
13.118687999999999,-58.0,76.0,1082.0
13.125359999999999,-58.0,72.0,1045.0
13.132019999999999,-58.0,63.0,1017.0
13.138691999999999,-50.0,62.0,997.0
13.145351999999999,-48.0,65.0,966.0
13.152023999999999,-44.0,63.0,946.0
13.158684,-38.0,59.0,913.0
13.165356,-41.0,58.0,904.0
13.172016,-38.0,58.0,874.0
13.178688,-36.0,60.0,857.0
13.185348,-32.0,57.0,864.0
13.19202,-35.0,51.0,857.0
13.19868,-33.0,55.0,871.0
13.205352,-36.0,60.0,879.0
13.212016,-37.0,59.0,905.0
13.218684,-41.0,60.0,918.0
13.225348,-43.0,62.0,952.0
13.232016,-50.0,68.0,982.0
13.238684,-51.0,65.0,996.0
13.245348,-51.0,61.0,1033.0
13.252016,-59.0,73.0,1060.0
13.25868,-61.0,69.0,1088.0
13.265348,-56.0,76.0,1121.0
13.272012,-65.0,74.0,1135.0
13.278675999999999,-68.0,78.0,1166.0
13.28534,-69.0,77.0,1162.0
13.292008,-72.0,75.0,1174.0
13.298676,-70.0,78.0,1167.0
13.30534,-67.0,75.0,1168.0
13.312007999999999,-66.0,74.0,1153.0
13.318676,-67.0,75.0,1144.0
13.325339999999999,-67.0,74.0,1122.0
13.332004,-55.0,76.0,1095.0
13.338671999999999,-55.0,65.0,1073.0
13.34534,-54.0,71.0,1035.0
13.352003999999999,-47.0,66.0,1018.0
13.358672,-48.0,62.0,984.0
13.365336,-43.0,63.0,964.0
13.372,-42.0,58.0,938.0
13.378668,-37.0,59.0,906.0
13.385332,-44.0,55.0,893.0
13.392,-36.0,59.0,876.0
13.398667999999999,-35.0,57.0,865.0
13.405332,-35.0,54.0,867.0
13.411999999999999,-36.0,54.0,870.0
13.41866,-33.0,56.0,876.0
13.425332,-38.0,49.0,884.0
13.431987999999999,-41.0,58.0,903.0
13.438664,-47.0,65.0,940.0
13.445324,-46.0,64.0,964.0
13.451991999999999,-51.0,61.0,988.0
13.458656,-50.0,60.0,1013.0
13.465323999999999,-55.0,66.0,1049.0
13.471983999999999,-55.0,69.0,1075.0
13.478655999999999,-60.0,73.0,1103.0
13.485316,-64.0,76.0,1122.0
13.491988,-68.0,72.0,1138.0
13.498652,-68.0,74.0,1151.0
13.505324,-68.0,76.0,1164.0
13.51198,-72.0,76.0,1171.0
13.518656,-68.0,74.0,1168.0
13.525312,-67.0,78.0,1154.0
13.531984,-69.0,79.0,1139.0
13.538648,-63.0,76.0,1134.0
13.545316,-63.0,74.0,1108.0
13.551984,-67.0,72.0,1086.0
13.558652,-54.0,73.0,1059.0
13.565316,-53.0,69.0,1035.0
13.571983999999999,-45.0,63.0,995.0
13.578648,-49.0,62.0,980.0
13.585312,-47.0,59.0,955.0
13.59198,-39.0,60.0,929.0
13.598647999999999,-38.0,54.0,905.0
13.605312,-39.0,57.0,874.0
13.611979999999999,-35.0,56.0,874.0
13.618644,-36.0,60.0,860.0
13.625312,-33.0,57.0,871.0
13.631976,-36.0,58.0,868.0
13.638644,-41.0,58.0,888.0
13.645308,-38.0,54.0,892.0
13.651971999999999,-44.0,59.0,928.0
13.65864,-43.0,62.0,950.0
13.665303999999999,-42.0,65.0,971.0
13.671972,-53.0,59.0,995.0
13.678636,-48.0,65.0,1026.0
13.685304,-55.0,68.0,1060.0
13.691968,-57.0,70.0,1073.0
13.698635999999999,-62.0,71.0,1108.0
13.7053,-67.0,80.0,1121.0
13.711967999999999,-65.0,75.0,1143.0
13.718632,-63.0,71.0,1157.0
13.725299999999999,-65.0,70.0,1165.0
13.731968,-65.0,74.0,1166.0
13.738631999999999,-69.0,77.0,1167.0
13.745296,-70.0,75.0,1156.0
13.751964,-65.0,74.0,1142.0
13.758628,-64.0,73.0,1119.0
13.765296,-58.0,73.0,1107.0
13.771956,-59.0,68.0,1074.0
13.778628,-57.0,62.0,1048.0
13.785288,-55.0,66.0,1019.0
13.79196,-51.0,65.0,990.0
13.79862,-45.0,64.0,966.0
13.805292,-45.0,63.0,945.0
13.811952,-40.0,59.0,921.0
13.818624,-43.0,58.0,894.0
13.825284,-37.0,57.0,877.0
13.831956,-35.0,50.0,874.0
13.838612,-31.0,54.0,875.0
13.845288,-34.0,54.0,867.0
13.851948,-35.0,58.0,873.0
13.85862,-37.0,57.0,894.0
13.86528,-41.0,53.0,910.0
13.871952,-42.0,55.0,921.0
13.878612,-48.0,60.0,959.0
13.885284,-44.0,60.0,985.0
13.891952,-54.0,62.0,1007.0
13.898615999999999,-52.0,69.0,1039.0
13.905284,-57.0,76.0,1059.0
13.911947999999999,-60.0,74.0,1084.0
13.918616,-71.0,75.0,1112.0
13.925276,-66.0,76.0,1138.0
13.931948,-66.0,74.0,1145.0
13.938612,-68.0,77.0,1158.0
13.945276,-60.0,76.0,1160.0
13.951944,-70.0,73.0,1169.0
13.958608,-69.0,77.0,1151.0
13.965276,-69.0,77.0,1146.0
13.971943999999999,-67.0,78.0,1141.0
13.978608,-63.0,74.0,1111.0
13.985272,-60.0,68.0,1094.0
13.99194,-59.0,63.0,1058.0
13.998604,-55.0,64.0,1032.0
14.005272,-52.0,68.0,1012.0
14.011936,-53.0,63.0,972.0
14.0186,-44.0,61.0,965.0
14.025267999999999,-44.0,59.0,931.0
14.031936,-43.0,55.0,902.0
14.038604,-39.0,57.0,894.0
14.045268,-43.0,56.0,879.0
14.051936,-36.0,53.0,877.0
14.0586,-36.0,56.0,872.0
14.065263999999999,-39.0,59.0,872.0
14.071932,-41.0,57.0,877.0
14.0786,-40.0,56.0,900.0
14.085263999999999,-38.0,59.0,911.0
14.091928,-47.0,61.0,938.0
14.098595999999999,-42.0,59.0,967.0
14.105264,-50.0,68.0,991.0
14.11192,-55.0,68.0,1013.0
14.118596,-57.0,72.0,1045.0
14.125256,-60.0,70.0,1071.0
14.131928,-65.0,79.0,1097.0
14.138588,-64.0,68.0,1120.0
14.14526,-66.0,73.0,1142.0
14.151919999999999,-67.0,74.0,1157.0
14.158591999999999,-67.0,75.0,1150.0
14.165251999999999,-65.0,76.0,1158.0
14.17192,-69.0,80.0,1159.0
14.17858,-68.0,75.0,1143.0
14.185252,-66.0,72.0,1140.0
14.191915999999999,-65.0,69.0,1123.0
14.198587999999999,-62.0,74.0,1103.0
14.205244,-59.0,68.0,1076.0
14.211915999999999,-61.0,70.0,1042.0
14.218575999999999,-55.0,71.0,1025.0
14.225252,-52.0,63.0,993.0
14.231916,-48.0,68.0,980.0
14.238584,-45.0,61.0,954.0
14.245248,-43.0,60.0,918.0
14.251916,-39.0,57.0,906.0
14.258576,-34.0,58.0,887.0
14.265244,-39.0,61.0,880.0
14.271912,-36.0,55.0,879.0
14.27858,-34.0,60.0,875.0
14.28524,-34.0,52.0,879.0
14.291912,-37.0,53.0,887.0
14.298575999999999,-38.0,59.0,914.0
14.305244,-42.0,58.0,919.0
14.311907999999999,-44.0,59.0,956.0
14.318572,-45.0,63.0,974.0
14.325239999999999,-51.0,69.0,1007.0
14.331908,-51.0,64.0,1035.0
14.338572,-58.0,70.0,1050.0
14.345239999999999,-57.0,75.0,1081.0
14.351904,-63.0,75.0,1109.0
14.358571999999999,-60.0,75.0,1123.0
14.365236,-65.0,70.0,1137.0
14.3719,-64.0,77.0,1149.0
14.378568,-66.0,77.0,1152.0
14.385232,-70.0,76.0,1156.0
14.3919,-64.0,78.0,1159.0
14.398568,-69.0,77.0,1141.0
14.405232,-61.0,75.0,1136.0
14.411895999999999,-66.0,76.0,1109.0
14.418564,-61.0,76.0,1096.0
14.425227999999999,-59.0,71.0,1064.0
14.431896,-57.0,67.0,1033.0
14.438559999999999,-54.0,65.0,1012.0
14.445228,-52.0,63.0,993.0
14.451888,-44.0,62.0,974.0
14.45856,-43.0,64.0,940.0
14.46522,-42.0,50.0,921.0
14.471892,-36.0,53.0,893.0
14.478548,-33.0,61.0,890.0
14.485223999999999,-39.0,59.0,882.0
14.491883999999999,-35.0,57.0,881.0
14.498552,-38.0,57.0,881.0
14.505216,-37.0,56.0,888.0
14.511887999999999,-40.0,56.0,899.0
14.518548,-39.0,59.0,920.0
14.525220000000001,-46.0,60.0,945.0
14.531880000000001,-43.0,63.0,965.0
14.538552,-50.0,62.0,986.0
14.545212,-54.0,64.0,1012.0
14.551884000000001,-56.0,73.0,1034.0
14.558544000000001,-59.0,71.0,1064.0
14.565216,-60.0,68.0,1087.0
14.571884,-62.0,71.0,1115.0
14.578547999999998,-64.0,75.0,1124.0
14.585211999999999,-65.0,77.0,1142.0
14.59188,-69.0,77.0,1148.0
14.598544,-68.0,76.0,1153.0
14.605208000000001,-61.0,78.0,1158.0
14.61188,-67.0,76.0,1144.0
14.618544,-63.0,77.0,1139.0
14.625208,-66.0,75.0,1136.0
14.631875999999998,-60.0,68.0,1113.0
14.638539999999999,-62.0,74.0,1085.0
14.645208,-57.0,65.0,1051.0
14.651872000000001,-56.0,66.0,1025.0
14.658539999999999,-49.0,64.0,999.0
14.665208,-45.0,64.0,983.0
14.671872,-44.0,56.0,958.0
14.678539999999998,-43.0,58.0,938.0
14.685203999999999,-37.0,59.0,909.0
14.691868,-40.0,59.0,896.0
14.698532,-39.0,59.0,890.0
14.705199999999998,-36.0,50.0,883.0
14.711867999999999,-38.0,57.0,875.0
14.718532,-41.0,52.0,884.0
14.725200000000001,-36.0,57.0,903.0
14.731863999999998,-38.0,56.0,905.0
14.738532,-41.0,55.0,938.0
14.745196,-42.0,60.0,959.0
14.751864000000001,-54.0,61.0,974.0
14.758531999999999,-50.0,67.0,998.0
14.765196,-54.0,68.0,1025.0
14.771864,-54.0,70.0,1045.0
14.778527999999998,-59.0,68.0,1065.0
14.785191999999999,-62.0,72.0,1101.0
14.791851999999999,-66.0,73.0,1124.0
14.798524,-66.0,75.0,1129.0
14.805184,-69.0,73.0,1150.0
14.811855999999999,-64.0,79.0,1154.0
14.81852,-65.0,79.0,1152.0
14.825188,-70.0,78.0,1152.0
14.831851999999998,-67.0,78.0,1142.0
14.838519999999999,-65.0,75.0,1130.0
14.84518,-63.0,74.0,1115.0
14.851852000000001,-63.0,73.0,1091.0
14.858512000000001,-59.0,72.0,1069.0
14.865184,-54.0,71.0,1047.0
14.871844,-53.0,68.0,1019.0
14.878516000000001,-54.0,66.0,996.0
14.885175999999998,-49.0,61.0,970.0
14.891848,-48.0,59.0,946.0
14.898512,-42.0,60.0,918.0
14.905179999999998,-38.0,59.0,910.0
14.911847999999999,-39.0,61.0,895.0
14.918512,-37.0,58.0,882.0
14.925180000000001,-35.0,57.0,887.0
14.931847999999999,-37.0,56.0,880.0
14.938512,-40.0,57.0,898.0
14.945176,-38.0,54.0,906.0
14.951844000000001,-41.0,55.0,928.0
14.958507999999998,-40.0,63.0,940.0
14.965176,-46.0,65.0,962.0
14.97184,-52.0,68.0,985.0
14.978507999999998,-53.0,67.0,1005.0
14.985171999999999,-55.0,63.0,1033.0
14.99184,-57.0,68.0,1053.0
14.998504,-59.0,65.0,1075.0
15.005171999999998,-62.0,69.0,1109.0
15.011835999999999,-66.0,75.0,1123.0
15.018504,-69.0,77.0,1134.0
15.025168,-68.0,77.0,1142.0
15.031835999999998,-67.0,74.0,1154.0
15.038499999999999,-66.0,77.0,1156.0
15.045168,-65.0,77.0,1151.0
15.051832000000001,-68.0,68.0,1142.0
15.058499999999999,-66.0,73.0,1127.0
15.065164,-62.0,69.0,1108.0
15.071832,-57.0,70.0,1088.0
15.078499999999998,-54.0,68.0,1059.0
15.085163999999999,-56.0,68.0,1030.0
15.091832,-57.0,63.0,1015.0
15.098496,-46.0,65.0,982.0
15.105163999999998,-43.0,66.0,972.0
15.111828,-43.0,56.0,940.0
15.118492,-38.0,59.0,926.0
15.125160000000001,-41.0,61.0,909.0
15.131820000000001,-39.0,55.0,895.0
15.138492,-41.0,59.0,880.0
15.145147999999999,-38.0,57.0,880.0
15.151823999999998,-44.0,59.0,887.0
15.158483999999998,-39.0,54.0,894.0
15.165156,-38.0,55.0,903.0
15.171816,-40.0,55.0,925.0
15.178487999999998,-47.0,59.0,951.0
15.185147999999998,-44.0,63.0,975.0
15.19182,-46.0,62.0,990.0
15.19848,-55.0,68.0,1028.0
15.205151999999998,-50.0,65.0,1041.0
15.211811999999998,-57.0,73.0,1072.0
15.218484,-59.0,74.0,1092.0
15.225144,-62.0,69.0,1115.0
15.231815999999998,-67.0,77.0,1131.0
15.238475999999999,-68.0,75.0,1135.0
15.245148,-65.0,78.0,1151.0
15.251812000000001,-65.0,74.0,1147.0
15.258479999999999,-66.0,82.0,1144.0
15.265144,-66.0,76.0,1141.0
15.271812,-64.0,75.0,1127.0
15.278479999999998,-63.0,73.0,1112.0
15.285143999999999,-61.0,69.0,1104.0
15.291808,-59.0,73.0,1068.0
15.298476,-56.0,64.0,1044.0
15.305139999999998,-55.0,64.0,1019.0
15.311808,-53.0,63.0,1004.0
15.318472,-46.0,60.0,976.0
15.325140000000001,-44.0,60.0,957.0
15.331803999999998,-43.0,58.0,948.0
15.338472,-39.0,57.0,912.0
15.34514,-39.0,57.0,896.0
15.351803999999998,-40.0,56.0,895.0
15.358471999999999,-36.0,59.0,884.0
15.365136,-34.0,59.0,889.0
15.3718,-36.0,55.0,894.0
15.378464000000001,-36.0,55.0,907.0
15.385131999999999,-39.0,59.0,917.0
15.3918,-45.0,60.0,942.0
15.398464,-45.0,66.0,955.0
15.405131999999998,-48.0,65.0,979.0
15.411795999999999,-52.0,63.0,1009.0
15.418464,-54.0,65.0,1021.0
15.425128,-54.0,68.0,1045.0
15.431795999999999,-58.0,72.0,1085.0
15.43846,-58.0,71.0,1099.0
15.445128,-68.0,73.0,1115.0
15.451792000000001,-67.0,74.0,1132.0
15.458455999999998,-65.0,75.0,1136.0
15.465124,-66.0,76.0,1145.0
15.471784,-65.0,75.0,1144.0
15.478455999999998,-64.0,79.0,1142.0
15.485115999999998,-64.0,68.0,1142.0
15.491788,-63.0,74.0,1116.0
15.498452,-62.0,75.0,1109.0
15.505119999999998,-62.0,77.0,1086.0
15.511779999999998,-56.0,71.0,1066.0
15.518456,-53.0,67.0,1043.0
15.525112,-48.0,66.0,1011.0
15.531787999999999,-50.0,61.0,984.0
15.538447999999999,-44.0,58.0,969.0
15.545116,-46.0,67.0,950.0
15.551776,-42.0,57.0,930.0
15.558451999999999,-38.0,62.0,908.0
15.565107999999999,-39.0,60.0,898.0
15.571784000000001,-36.0,50.0,887.0
15.57844,-39.0,56.0,896.0
15.585111999999999,-38.0,55.0,893.0
15.591776,-38.0,53.0,897.0
15.598448000000001,-41.0,57.0,916.0
15.605107999999998,-38.0,58.0,936.0
15.61178,-39.0,58.0,950.0
15.61844,-45.0,62.0,967.0
15.625111999999998,-44.0,59.0,991.0
15.631775999999999,-50.0,59.0,1018.0
15.638444,-52.0,58.0,1034.0
15.645104,-57.0,66.0,1061.0
15.651775999999998,-62.0,69.0,1078.0
15.658435999999998,-63.0,70.0,1110.0
15.665108,-66.0,75.0,1120.0
15.671772,-62.0,74.0,1137.0
15.678439999999998,-67.0,68.0,1148.0
15.685103999999999,-71.0,78.0,1143.0
15.691772,-69.0,74.0,1146.0
15.698436000000001,-65.0,75.0,1137.0
15.705103999999999,-67.0,76.0,1129.0
15.711768,-61.0,78.0,1118.0
15.718436,-62.0,67.0,1091.0
15.725100000000001,-55.0,69.0,1071.0
15.731767999999999,-55.0,73.0,1051.0
15.738432,-54.0,68.0,1031.0
15.745096,-50.0,72.0,1004.0
15.751763999999998,-52.0,67.0,985.0
15.758431999999999,-47.0,67.0,960.0
15.765096,-42.0,60.0,944.0
15.77176,-41.0,62.0,928.0
15.778427999999998,-39.0,59.0,911.0
15.785091999999999,-40.0,62.0,900.0
15.79176,-36.0,54.0,895.0
15.798424,-37.0,50.0,885.0
15.805091999999998,-36.0,52.0,891.0
15.811751999999998,-42.0,55.0,905.0
15.818424,-38.0,59.0,914.0
15.825084,-39.0,66.0,932.0
15.831755999999999,-47.0,61.0,957.0
15.838415999999999,-46.0,57.0,977.0
15.845088,-49.0,62.0,997.0
15.851748,-55.0,68.0,1023.0
15.858419999999999,-55.0,71.0,1042.0
15.865079999999999,-54.0,67.0,1059.0
15.871752,-62.0,73.0,1089.0
15.878412,-64.0,75.0,1109.0
15.885083999999999,-65.0,76.0,1128.0
15.891744,-64.0,71.0,1132.0
15.898416000000001,-66.0,73.0,1143.0
15.905076000000001,-67.0,68.0,1139.0
15.911748,-67.0,79.0,1138.0
15.918403999999999,-64.0,73.0,1126.0
15.925080000000001,-62.0,74.0,1124.0
15.931736,-68.0,75.0,1107.0
15.938412,-60.0,72.0,1084.0
15.945076,-60.0,68.0,1066.0
15.951743999999998,-55.0,66.0,1040.0
15.958407999999999,-52.0,64.0,1027.0
15.965072,-48.0,67.0,994.0
15.971744000000001,-46.0,63.0,978.0
15.978404000000001,-47.0,63.0,953.0
15.985071999999999,-40.0,58.0,940.0
15.99174,-42.0,58.0,913.0
15.998404,-40.0,58.0,901.0
16.005072,-36.0,58.0,892.0
16.01174,-39.0,56.0,900.0
16.018404,-38.0,57.0,894.0
16.025071999999998,-33.0,61.0,907.0
16.031736,-43.0,56.0,908.0
16.038404,-41.0,62.0,927.0
16.045068,-41.0,58.0,945.0
16.051732,-46.0,63.0,962.0
16.0584,-45.0,67.0,990.0
16.065064,-50.0,72.0,1016.0
16.071732,-53.0,68.0,1032.0
16.078395999999998,-54.0,65.0,1050.0
16.08506,-58.0,70.0,1073.0
16.091732,-63.0,68.0,1099.0
16.098396,-59.0,71.0,1110.0
16.105059999999998,-65.0,75.0,1126.0
16.111728,-63.0,75.0,1139.0
16.118392,-71.0,75.0,1146.0
16.125056,-68.0,74.0,1145.0
16.131724,-65.0,74.0,1136.0
16.138392,-67.0,74.0,1126.0
16.145056,-65.0,75.0,1116.0
16.151716,-65.0,68.0,1095.0
16.158392,-60.0,74.0,1073.0
16.165048,-52.0,73.0,1056.0
16.171724,-56.0,69.0,1032.0
16.17838,-53.0,65.0,1011.0
16.185052,-51.0,57.0,990.0
16.191712,-47.0,60.0,976.0
16.198387999999998,-44.0,65.0,949.0
16.205044,-46.0,58.0,930.0
16.211716,-37.0,63.0,911.0
16.218376,-41.0,58.0,901.0
16.225048,-35.0,55.0,899.0
16.231711999999998,-37.0,55.0,890.0
16.238384,-39.0,53.0,903.0
16.24504,-37.0,60.0,904.0
16.251716,-41.0,57.0,920.0
16.258371999999998,-43.0,61.0,937.0
16.265044,-45.0,56.0,955.0
16.271704,-44.0,60.0,972.0
16.27838,-45.0,65.0,998.0
16.28504,-52.0,67.0,1012.0
16.291712,-56.0,72.0,1035.0
16.298372,-56.0,69.0,1061.0
16.305044,-60.0,72.0,1088.0
16.311708,-68.0,73.0,1103.0
16.318376,-63.0,76.0,1116.0
16.325039999999998,-65.0,76.0,1130.0
16.331704,-64.0,76.0,1130.0
16.338372,-67.0,71.0,1139.0
16.345036,-65.0,76.0,1130.0
16.351703999999998,-66.0,78.0,1129.0
16.358372,-62.0,72.0,1119.0
16.365032,-58.0,73.0,1111.0
16.371704,-60.0,68.0,1090.0
16.378363999999998,-59.0,68.0,1069.0
16.385036,-55.0,66.0,1048.0
16.3917,-53.0,66.0,1025.0
16.398367999999998,-54.0,65.0,1003.0
16.405027999999998,-46.0,62.0,989.0
16.4117,-44.0,63.0,962.0
16.418364,-49.0,61.0,950.0
16.425031999999998,-40.0,55.0,937.0
16.431696,-41.0,55.0,916.0
16.438364,-35.0,61.0,906.0
16.445028,-43.0,59.0,900.0
16.451691999999998,-39.0,57.0,902.0
16.45836,-36.0,59.0,903.0
16.465024,-44.0,55.0,913.0
16.471692,-43.0,58.0,932.0
16.478355999999998,-45.0,61.0,953.0
16.485024,-47.0,57.0,962.0
16.491684,-49.0,63.0,985.0
16.498356,-49.0,65.0,997.0
16.505015999999998,-48.0,62.0,1024.0
16.511688,-59.0,68.0,1055.0
16.518348,-58.0,75.0,1067.0
16.525019999999998,-66.0,73.0,1098.0
16.531679999999998,-64.0,77.0,1107.0
16.538352,-58.0,71.0,1121.0
16.545012,-65.0,71.0,1130.0
16.551683999999998,-62.0,67.0,1137.0
16.558343999999998,-66.0,76.0,1136.0
16.565016,-64.0,75.0,1125.0
16.571676,-64.0,74.0,1122.0
16.578348,-62.0,70.0,1112.0
16.585003999999998,-64.0,69.0,1096.0
16.59168,-57.0,66.0,1076.0
16.59834,-56.0,73.0,1058.0
16.605012,-58.0,68.0,1031.0
16.611672,-54.0,64.0,1020.0
16.618344,-55.0,61.0,999.0
16.625008,-48.0,58.0,973.0
16.631676,-50.0,64.0,956.0
16.63834,-47.0,59.0,935.0
16.645008,-39.0,62.0,924.0
16.651676,-36.0,57.0,914.0
16.65834,-40.0,60.0,909.0
16.665008,-41.0,55.0,901.0
16.671672,-37.0,56.0,900.0
16.67834,-38.0,58.0,906.0
16.685004,-41.0,62.0,926.0
16.691672,-41.0,58.0,937.0
16.698336,-40.0,62.0,955.0
16.705,-50.0,61.0,967.0
16.711668,-48.0,62.0,990.0
16.718332,-48.0,67.0,1016.0
16.724999999999998,-57.0,66.0,1029.0
16.731664,-59.0,70.0,1054.0
16.738332,-56.0,63.0,1079.0
16.745,-59.0,76.0,1100.0
16.751663999999998,-67.0,68.0,1113.0
16.758332,-60.0,76.0,1125.0
16.764996,-64.0,77.0,1125.0
16.771663999999998,-67.0,73.0,1134.0
16.778328,-66.0,79.0,1133.0
16.784992,-68.0,78.0,1127.0
16.79166,-66.0,74.0,1117.0
16.798324,-60.0,72.0,1107.0
16.804992,-58.0,66.0,1099.0
16.81166,-58.0,71.0,1073.0
16.818324,-58.0,71.0,1040.0
16.824988,-55.0,63.0,1032.0
16.831656,-54.0,63.0,1006.0
16.838324,-53.0,65.0,976.0
16.84498,-47.0,67.0,966.0
16.851656,-45.0,64.0,946.0
16.858316,-43.0,62.0,932.0
16.864984,-37.0,59.0,923.0
16.871648,-37.0,54.0,908.0
16.878315999999998,-34.0,56.0,901.0
16.884975999999998,-38.0,54.0,908.0
16.891652,-40.0,57.0,913.0
16.898312,-38.0,59.0,918.0
16.90498,-39.0,57.0,925.0
16.911644,-43.0,63.0,945.0
16.918316,-46.0,63.0,962.0
16.924972,-49.0,59.0,977.0
16.931648,-51.0,68.0,995.0
16.938304,-54.0,62.0,1025.0
16.944976,-55.0,73.0,1042.0
16.95164,-56.0,66.0,1071.0
16.958308,-61.0,67.0,1087.0
16.964976,-61.0,67.0,1102.0
16.971643999999998,-60.0,70.0,1110.0
16.978308,-61.0,74.0,1138.0
16.984976,-64.0,77.0,1128.0
16.99164,-69.0,77.0,1133.0
16.998304,-66.0,75.0,1126.0
17.004972,-61.0,74.0,1121.0
17.01164,-65.0,74.0,1117.0
17.018304,-64.0,70.0,1095.0
17.024971999999998,-59.0,64.0,1083.0
17.031636,-55.0,69.0,1057.0
17.038304,-52.0,68.0,1038.0
17.044968,-53.0,71.0,1023.0
17.051636,-51.0,63.0,998.0
17.0583,-57.0,58.0,980.0
17.064968,-47.0,64.0,962.0
17.071632,-45.0,58.0,945.0
17.0783,-45.0,56.0,930.0
17.084964,-37.0,59.0,920.0
17.091628,-39.0,61.0,907.0
17.098295999999998,-36.0,67.0,904.0
17.10496,-32.0,61.0,914.0
17.111624,-41.0,57.0,913.0
17.118296,-38.0,52.0,918.0
17.124959999999998,-41.0,65.0,941.0
17.131624,-44.0,58.0,957.0
17.138292,-47.0,60.0,966.0
17.14496,-50.0,61.0,985.0
17.151623999999998,-47.0,72.0,1010.0
17.158292,-53.0,70.0,1028.0
17.164956,-57.0,62.0,1047.0
17.171623999999998,-55.0,71.0,1067.0
17.178288,-56.0,70.0,1080.0
17.184948,-59.0,74.0,1110.0
17.19162,-63.0,75.0,1120.0
17.19828,-65.0,75.0,1122.0
17.204952,-67.0,76.0,1128.0
17.211612,-60.0,78.0,1128.0
17.218284,-64.0,76.0,1123.0
17.224944,-66.0,75.0,1120.0
17.231616,-60.0,68.0,1106.0
17.238276,-61.0,76.0,1094.0
17.244948,-60.0,68.0,1066.0
17.251608,-57.0,72.0,1048.0
17.25828,-49.0,68.0,1036.0
17.26494,-49.0,70.0,1007.0
17.271612,-52.0,61.0,990.0
17.278271999999998,-49.0,62.0,968.0
17.284944,-44.0,62.0,952.0
17.291604,-43.0,55.0,940.0
17.298272,-43.0,62.0,922.0
17.304944,-43.0,60.0,918.0
17.311608,-39.0,58.0,904.0
17.318276,-40.0,55.0,912.0
17.324939999999998,-36.0,57.0,913.0
17.331608,-33.0,58.0,915.0
17.338268,-43.0,63.0,928.0
17.34494,-42.0,61.0,946.0
17.351604,-43.0,63.0,962.0
17.358268,-46.0,64.0,977.0
17.364936,-53.0,63.0,995.0
17.3716,-51.0,61.0,1015.0
17.378268,-55.0,68.0,1039.0
17.384932,-53.0,65.0,1054.0
17.3916,-58.0,67.0,1079.0
17.398264,-60.0,70.0,1100.0
17.404932,-63.0,72.0,1108.0
17.411596,-62.0,72.0,1121.0
17.418264,-62.0,77.0,1130.0
17.424927999999998,-63.0,76.0,1129.0
17.431596,-63.0,73.0,1122.0
17.43826,-63.0,75.0,1121.0
17.444928,-60.0,72.0,1110.0
17.451596,-60.0,74.0,1104.0
17.45826,-57.0,70.0,1079.0
17.464928,-58.0,74.0,1056.0
17.471592,-55.0,73.0,1039.0
17.478256,-52.0,64.0,1027.0
17.484924,-51.0,60.0,1002.0
17.491592,-47.0,65.0,981.0
17.498255999999998,-46.0,61.0,958.0
17.504924,-42.0,59.0,959.0
17.511588,-42.0,56.0,942.0
17.518256,-41.0,63.0,923.0
17.524916,-39.0,57.0,917.0
17.531588,-38.0,61.0,910.0
17.538248,-42.0,55.0,916.0
17.544919999999998,-37.0,57.0,912.0
17.551576,-38.0,56.0,917.0
17.558252,-41.0,59.0,934.0
17.564908,-41.0,63.0,948.0
17.571583999999998,-46.0,66.0,965.0
17.578243999999998,-47.0,66.0,987.0
17.584912,-47.0,62.0,1008.0
17.591572,-53.0,70.0,1027.0
17.598244,-58.0,68.0,1041.0
17.604908,-62.0,73.0,1060.0
17.61158,-58.0,73.0,1084.0
17.618236,-61.0,71.0,1104.0
17.624907999999998,-64.0,76.0,1112.0
17.631567999999998,-60.0,75.0,1119.0
17.63824,-62.0,76.0,1122.0
17.644908,-62.0,75.0,1122.0
17.651571999999998,-63.0,76.0,1124.0
17.65824,-62.0,74.0,1118.0
17.664904,-61.0,71.0,1105.0
17.671571999999998,-62.0,74.0,1093.0
17.678236,-59.0,74.0,1067.0
17.684904,-56.0,69.0,1057.0
17.691568,-53.0,70.0,1029.0
17.698235999999998,-55.0,68.0,1021.0
17.7049,-49.0,59.0,998.0
17.711568,-46.0,66.0,983.0
17.718232,-42.0,58.0,970.0
17.724899999999998,-41.0,57.0,950.0
17.731564,-47.0,62.0,940.0
17.738232,-39.0,53.0,919.0
17.744896,-41.0,58.0,910.0
17.751564,-41.0,60.0,914.0
17.758232,-36.0,54.0,914.0
17.764896,-46.0,59.0,917.0
17.77156,-38.0,63.0,938.0
17.778228,-43.0,60.0,946.0
17.784896,-42.0,64.0,955.0
17.79156,-46.0,63.0,969.0
17.798224,-47.0,64.0,989.0
17.804892,-49.0,58.0,1017.0
17.811556,-53.0,71.0,1035.0
17.818224,-53.0,69.0,1048.0
17.824887999999998,-59.0,71.0,1069.0
17.831556,-60.0,73.0,1088.0
17.83822,-65.0,74.0,1104.0
17.844888,-66.0,80.0,1109.0
17.851551999999998,-66.0,72.0,1120.0
17.85822,-67.0,71.0,1130.0
17.864876,-61.0,73.0,1123.0
17.871551999999998,-60.0,76.0,1122.0
17.878211999999998,-64.0,69.0,1109.0
17.884884,-65.0,76.0,1095.0
17.891544,-61.0,73.0,1075.0
17.898215999999998,-57.0,74.0,1066.0
17.904875999999998,-55.0,68.0,1048.0
17.911548,-51.0,65.0,1025.0
17.918208,-49.0,64.0,1011.0
17.924879999999998,-46.0,67.0,994.0
17.93154,-50.0,64.0,971.0
17.938212,-40.0,55.0,952.0
17.944872,-43.0,57.0,951.0
17.951544,-35.0,58.0,922.0
17.958204,-40.0,59.0,918.0
17.964876,-40.0,59.0,915.0
17.971536,-38.0,59.0,916.0
17.978208,-43.0,60.0,912.0
17.984876,-41.0,55.0,920.0
17.99154,-42.0,63.0,940.0
17.998207999999998,-43.0,72.0,955.0
18.004872,-42.0,66.0,967.0
18.011536,-48.0,61.0,985.0
18.018204,-50.0,65.0,998.0
18.024867999999998,-53.0,64.0,1021.0
18.031536,-52.0,70.0,1037.0
18.0382,-54.0,68.0,1058.0
18.044868,-57.0,69.0,1072.0
18.051536,-61.0,72.0,1097.0
18.0582,-63.0,78.0,1107.0
18.064868,-61.0,70.0,1121.0
18.071531999999998,-65.0,78.0,1128.0
18.0782,-65.0,74.0,1129.0
18.084864,-61.0,72.0,1114.0
18.091532,-61.0,72.0,1113.0
18.098195999999998,-60.0,72.0,1105.0
18.10486,-60.0,75.0,1093.0
18.111528,-58.0,73.0,1081.0
18.118192,-57.0,72.0,1058.0
18.124859999999998,-54.0,63.0,1038.0
18.131524,-55.0,75.0,1020.0
18.138192,-48.0,67.0,1003.0
18.144859999999998,-50.0,59.0,984.0
18.151524,-48.0,62.0,972.0
18.158188,-46.0,69.0,957.0
18.164856,-43.0,68.0,938.0
18.171523999999998,-38.0,61.0,929.0
18.178188,-41.0,57.0,920.0
18.184852,-40.0,60.0,910.0
18.19152,-36.0,56.0,921.0
18.198188,-42.0,55.0,923.0
18.204843999999998,-39.0,56.0,933.0
18.21152,-42.0,66.0,941.0
18.21818,-49.0,65.0,955.0
18.224852,-49.0,57.0,977.0
18.231507999999998,-46.0,59.0,991.0
18.23818,-54.0,62.0,1011.0
18.24484,-55.0,63.0,1034.0
18.251516,-54.0,62.0,1046.0
18.258172,-57.0,68.0,1059.0
18.264848,-58.0,74.0,1096.0
18.271504,-66.0,73.0,1099.0
18.27818,-61.0,73.0,1108.0
18.284836,-62.0,77.0,1112.0
18.291508,-60.0,74.0,1114.0
18.298168,-65.0,79.0,1122.0
18.30484,-64.0,75.0,1112.0
18.311504,-62.0,75.0,1105.0
18.318176,-59.0,72.0,1100.0
18.32484,-60.0,74.0,1082.0
18.331504,-61.0,73.0,1067.0
18.338172,-54.0,65.0,1048.0
18.344836,-53.0,64.0,1032.0
18.351504,-54.0,57.0,1004.0
18.358168,-49.0,61.0,994.0
18.364836,-49.0,66.0,971.0
18.3715,-42.0,57.0,964.0
18.378168,-43.0,60.0,949.0
18.384832,-42.0,57.0,933.0
18.3915,-40.0,57.0,929.0
18.398163999999998,-38.0,59.0,927.0
18.404832,-41.0,58.0,916.0
18.411496,-38.0,63.0,915.0
18.418164,-39.0,62.0,938.0
18.424827999999998,-49.0,62.0,937.0
18.431496,-43.0,59.0,952.0
18.43816,-46.0,62.0,961.0
18.444828,-45.0,58.0,978.0
18.451492,-53.0,58.0,1001.0
18.45816,-50.0,66.0,1020.0
18.464824,-53.0,67.0,1042.0
18.471491999999998,-54.0,72.0,1047.0
18.478156,-53.0,67.0,1069.0
18.484824,-63.0,75.0,1091.0
18.491492,-65.0,64.0,1102.0
18.498155999999998,-61.0,70.0,1110.0
18.50482,-57.0,75.0,1109.0
18.511488,-60.0,73.0,1120.0
18.518152,-65.0,72.0,1118.0
18.52482,-62.0,73.0,1111.0
18.531488,-57.0,76.0,1103.0
18.538152,-62.0,70.0,1090.0
18.544812,-59.0,69.0,1078.0
18.551479999999998,-59.0,63.0,1064.0
18.558144,-57.0,66.0,1045.0
18.564816,-54.0,65.0,1033.0
18.571476,-53.0,60.0,1006.0
18.578148,-51.0,59.0,989.0
18.584808,-50.0,59.0,976.0
18.59148,-47.0,58.0,957.0
18.59814,-45.0,55.0,943.0
18.604812,-44.0,62.0,930.0
18.611472,-39.0,57.0,924.0
18.618144,-39.0,58.0,921.0
18.624804,-38.0,57.0,918.0
18.631476,-41.0,60.0,929.0
18.638136,-44.0,61.0,936.0
18.644807999999998,-47.0,59.0,946.0
18.651467999999998,-45.0,56.0,958.0
18.65814,-46.0,65.0,975.0
18.664808,-48.0,60.0,990.0
18.671471999999998,-54.0,62.0,1007.0
18.67814,-52.0,65.0,1019.0
18.684804,-53.0,66.0,1042.0
18.691468,-55.0,68.0,1059.0
18.698135999999998,-56.0,70.0,1068.0
18.7048,-61.0,73.0,1085.0
18.711468,-61.0,66.0,1098.0
18.718132,-65.0,68.0,1111.0
18.7248,-65.0,73.0,1116.0
18.731468,-64.0,75.0,1111.0
18.738132,-66.0,76.0,1116.0
18.744796,-62.0,77.0,1100.0
18.751464,-61.0,70.0,1099.0
18.758128,-60.0,75.0,1078.0
18.764796,-59.0,73.0,1064.0
18.771463999999998,-56.0,67.0,1043.0
18.778128,-53.0,65.0,1037.0
18.784792,-53.0,63.0,1024.0
18.79146,-50.0,63.0,993.0
18.798123999999998,-49.0,64.0,977.0
18.804788,-42.0,55.0,970.0
18.811456,-43.0,63.0,956.0
18.818124,-41.0,56.0,946.0
18.824787999999998,-38.0,60.0,941.0
18.831456,-43.0,61.0,925.0
18.83812,-43.0,58.0,924.0
18.844787999999998,-43.0,60.0,916.0
18.851452,-42.0,60.0,930.0
18.85812,-42.0,56.0,935.0
18.864784,-41.0,63.0,954.0
18.871451999999998,-43.0,59.0,960.0
18.878116,-49.0,61.0,982.0
18.884776,-48.0,68.0,995.0
18.891448,-54.0,60.0,1018.0
18.898108,-56.0,66.0,1032.0
18.90478,-60.0,73.0,1049.0
18.911444,-58.0,72.0,1067.0
18.918112,-61.0,66.0,1078.0
18.924772,-57.0,70.0,1100.0
18.931444,-60.0,71.0,1108.0
18.938104,-62.0,68.0,1109.0
18.944779999999998,-61.0,75.0,1116.0
18.951436,-63.0,70.0,1121.0
18.958112,-63.0,68.0,1113.0
18.964768,-64.0,71.0,1106.0
18.971443999999998,-57.0,70.0,1090.0
18.978099999999998,-57.0,72.0,1074.0
18.984776,-58.0,71.0,1055.0
18.991432,-56.0,66.0,1042.0
18.998103999999998,-55.0,67.0,1031.0
19.004768,-54.0,65.0,1011.0
19.01144,-51.0,73.0,985.0
19.0181,-49.0,63.0,974.0
19.024772,-47.0,64.0,967.0
19.031432,-45.0,61.0,952.0
19.038104,-39.0,62.0,933.0
19.044767999999998,-44.0,57.0,932.0
19.051436,-39.0,53.0,921.0
19.058096,-41.0,58.0,917.0
19.064768,-39.0,61.0,923.0
19.071431999999998,-41.0,61.0,939.0
19.078096,-41.0,59.0,939.0
19.084764,-46.0,67.0,963.0
19.091428,-44.0,58.0,973.0
19.098095999999998,-50.0,60.0,977.0
19.104764,-49.0,63.0,1002.0
19.111424,-52.0,66.0,1018.0
19.118095999999998,-51.0,69.0,1036.0
19.12476,-58.0,65.0,1054.0
19.131428,-56.0,65.0,1072.0
19.138092,-60.0,66.0,1091.0
19.144759999999998,-62.0,72.0,1099.0
19.151424,-64.0,73.0,1106.0
19.158088,-60.0,63.0,1116.0
19.164756,-61.0,74.0,1119.0
19.171419999999998,-59.0,71.0,1108.0
19.178088,-64.0,76.0,1104.0
19.184752,-63.0,73.0,1104.0
19.19142,-62.0,72.0,1088.0
19.198088,-56.0,67.0,1069.0
19.204752,-59.0,69.0,1051.0
19.211416,-54.0,65.0,1037.0
19.218084,-57.0,60.0,1021.0
19.224743999999998,-54.0,74.0,1003.0
19.231416,-46.0,61.0,986.0
19.238072,-49.0,59.0,972.0
19.244747999999998,-44.0,56.0,956.0
19.251404,-43.0,62.0,939.0
19.25808,-44.0,59.0,933.0
19.26474,-39.0,61.0,932.0
19.271411999999998,-41.0,61.0,919.0
19.278071999999998,-40.0,65.0,932.0
19.284744,-44.0,64.0,928.0
19.291404,-41.0,61.0,937.0
19.298076,-44.0,63.0,956.0
19.304736,-42.0,60.0,963.0
19.311408,-48.0,58.0,978.0
19.318068,-49.0,64.0,993.0
19.32474,-50.0,69.0,1007.0
19.3314,-52.0,62.0,1029.0
19.338072,-59.0,69.0,1040.0
19.344736,-58.0,70.0,1057.0
19.351399999999998,-56.0,71.0,1074.0
19.358068,-60.0,71.0,1086.0
19.364736,-60.0,71.0,1098.0
19.371399999999998,-62.0,77.0,1111.0
19.378068,-65.0,74.0,1114.0
19.384736,-64.0,70.0,1117.0
19.3914,-61.0,71.0,1110.0
19.398063999999998,-65.0,77.0,1104.0
19.404732,-61.0,70.0,1095.0
19.4114,-58.0,63.0,1076.0
19.418063999999998,-54.0,68.0,1055.0
19.424727999999998,-55.0,62.0,1044.0
19.431396,-55.0,71.0,1029.0
19.43806,-54.0,68.0,1008.0
19.444727999999998,-52.0,63.0,995.0
19.451392,-50.0,58.0,985.0
19.45806,-45.0,58.0,969.0
19.464724,-43.0,61.0,952.0
19.471391999999998,-40.0,57.0,950.0
19.47806,-43.0,58.0,932.0
19.484724,-37.0,56.0,920.0
19.491391999999998,-45.0,58.0,933.0
19.498056,-40.0,61.0,927.0
19.50472,-41.0,60.0,928.0
19.511388,-41.0,62.0,955.0
19.518052,-49.0,63.0,964.0
19.52472,-48.0,57.0,963.0
19.531384,-47.0,66.0,988.0
19.538052,-50.0,68.0,1000.0
19.544719999999998,-52.0,68.0,1011.0
19.551384,-50.0,66.0,1031.0
19.558052,-59.0,65.0,1056.0
19.564712,-59.0,68.0,1069.0
19.571384,-60.0,68.0,1077.0
19.578044,-57.0,72.0,1093.0
19.584712,-60.0,74.0,1106.0
19.591376,-62.0,65.0,1113.0
19.598043999999998,-58.0,76.0,1108.0
19.604703999999998,-65.0,77.0,1102.0
19.611376,-61.0,72.0,1106.0
19.618036,-59.0,75.0,1100.0
19.624708,-61.0,74.0,1084.0
19.631368,-59.0,65.0,1070.0
19.63804,-54.0,71.0,1058.0
19.6447,-54.0,71.0,1035.0
19.651372,-54.0,66.0,1020.0
19.658036,-54.0,70.0,998.0
19.664704,-50.0,67.0,988.0
19.671368,-47.0,63.0,978.0
19.678036,-45.0,58.0,961.0
19.684704,-46.0,57.0,951.0
19.691368,-41.0,56.0,946.0
19.698036,-41.0,62.0,936.0
19.7047,-41.0,61.0,930.0
19.711368,-43.0,61.0,941.0
19.718032,-41.0,59.0,938.0
19.7247,-46.0,60.0,946.0
19.731368,-42.0,62.0,947.0
19.738028,-48.0,63.0,965.0
19.744699999999998,-50.0,57.0,970.0
19.75136,-51.0,66.0,987.0
19.758032,-48.0,60.0,1003.0
19.764696,-56.0,65.0,1018.0
19.771359999999998,-58.0,66.0,1035.0
19.778028,-53.0,70.0,1050.0
19.784692,-56.0,65.0,1075.0
19.79136,-57.0,71.0,1086.0
19.798028,-59.0,68.0,1104.0
19.804692,-57.0,74.0,1105.0
19.81136,-64.0,76.0,1106.0
19.81802,-62.0,72.0,1112.0
19.824692,-61.0,72.0,1106.0
19.831356,-58.0,70.0,1105.0
19.838024,-61.0,74.0,1090.0
19.844687999999998,-63.0,68.0,1086.0
19.851352,-55.0,77.0,1064.0
19.85802,-55.0,72.0,1044.0
19.864684,-59.0,73.0,1030.0
19.871351999999998,-52.0,67.0,1011.0
19.87802,-51.0,61.0,993.0
19.884684,-44.0,65.0,989.0
19.891348,-45.0,60.0,969.0
19.898011999999998,-47.0,59.0,960.0
19.90468,-44.0,60.0,950.0
19.911348,-46.0,65.0,942.0
19.918008,-40.0,60.0,933.0
19.92468,-42.0,59.0,917.0
19.931335999999998,-43.0,56.0,932.0
19.938012,-45.0,63.0,948.0
19.944668,-43.0,57.0,949.0
19.951344,-43.0,58.0,957.0
19.958004,-44.0,58.0,971.0
19.964672,-48.0,65.0,983.0
19.971336,-52.0,62.0,995.0
19.978008,-51.0,62.0,1006.0
19.984668,-55.0,63.0,1026.0
19.99134,-57.0,66.0,1044.0
19.997999999999998,-61.0,73.0,1055.0
20.004672,-56.0,64.0,1074.0
20.011332,-60.0,74.0,1094.0
20.018003999999998,-59.0,71.0,1104.0
20.024663999999998,-60.0,77.0,1088.0
20.031336,-65.0,68.0,1107.0
20.038,-65.0,71.0,1109.0
20.044667999999998,-60.0,63.0,1108.0
20.051332,-58.0,72.0,1091.0
20.058,-65.0,68.0,1090.0
20.064668,-57.0,69.0,1077.0
20.071331999999998,-59.0,63.0,1060.0
20.078,-54.0,71.0,1041.0
20.084664,-54.0,67.0,1030.0
20.091331999999998,-55.0,61.0,1013.0
20.097996,-54.0,66.0,994.0
20.10466,-46.0,60.0,975.0
20.111324,-50.0,60.0,974.0
20.117995999999998,-45.0,57.0,959.0
20.12466,-47.0,59.0,941.0
20.131324,-44.0,59.0,942.0
20.137992,-40.0,62.0,931.0
20.144655999999998,-43.0,58.0,947.0
20.151324,-42.0,57.0,943.0
20.157988,-44.0,64.0,951.0
20.164656,-42.0,65.0,948.0
20.171319999999998,-41.0,61.0,963.0
20.177988,-44.0,61.0,975.0
20.184652,-47.0,61.0,995.0
20.19132,-46.0,59.0,1000.0
20.197983999999998,-53.0,64.0,1014.0
20.204652,-57.0,68.0,1034.0
20.211316,-50.0,69.0,1058.0
20.217983999999998,-61.0,69.0,1064.0
20.224652,-59.0,75.0,1084.0
20.231316,-57.0,69.0,1092.0
20.23798,-61.0,74.0,1099.0
20.244647999999998,-64.0,76.0,1103.0
20.251312,-67.0,70.0,1107.0
20.257976,-64.0,76.0,1106.0
20.264644,-58.0,68.0,1095.0
20.271307999999998,-57.0,68.0,1092.0
20.27798,-56.0,76.0,1086.0
20.284636,-57.0,72.0,1058.0
20.291311999999998,-54.0,70.0,1048.0
20.297971999999998,-53.0,69.0,1036.0
20.304644,-52.0,60.0,1020.0
20.3113,-53.0,69.0,1004.0
20.317972,-55.0,58.0,989.0
20.324635999999998,-45.0,64.0,971.0
20.331308,-45.0,58.0,961.0
20.337964,-44.0,61.0,950.0
20.344635999999998,-45.0,58.0,945.0
20.351295999999998,-42.0,60.0,942.0
20.357968,-42.0,61.0,936.0
20.364632,-43.0,62.0,938.0
20.371299999999998,-43.0,59.0,944.0
20.377968,-44.0,58.0,952.0
20.384636,-43.0,61.0,957.0
20.391299999999998,-51.0,61.0,968.0
20.397968,-47.0,59.0,976.0
20.404632,-53.0,63.0,993.0
20.411296,-51.0,61.0,1008.0
20.417963999999998,-47.0,64.0,1020.0
20.424632,-55.0,65.0,1040.0
20.431296,-55.0,65.0,1057.0
20.437964,-52.0,64.0,1061.0
20.444627999999998,-59.0,70.0,1090.0
20.451296,-63.0,72.0,1093.0
20.45796,-62.0,77.0,1089.0
20.464624,-60.0,64.0,1102.0
20.471292,-63.0,73.0,1102.0
20.477956,-62.0,75.0,1105.0
20.484624,-61.0,64.0,1093.0
20.491288,-60.0,70.0,1081.0
20.497956,-58.0,73.0,1076.0
20.50462,-56.0,73.0,1053.0
20.511288,-53.0,67.0,1044.0
20.517951999999998,-52.0,66.0,1033.0
20.524615999999998,-51.0,69.0,1014.0
20.531288,-46.0,65.0,997.0
20.537952,-50.0,63.0,980.0
20.544615999999998,-46.0,62.0,971.0
20.551284,-46.0,65.0,954.0
20.557948,-45.0,62.0,950.0
20.564612,-44.0,57.0,950.0
20.571284,-46.0,59.0,941.0
20.577944,-42.0,54.0,938.0
20.584616,-45.0,54.0,949.0
20.591279999999998,-41.0,57.0,942.0
20.597939999999998,-48.0,63.0,952.0
20.604612,-46.0,60.0,964.0
20.611272,-44.0,64.0,981.0
20.617943999999998,-48.0,68.0,986.0
20.624603999999998,-52.0,62.0,999.0
20.631276,-53.0,63.0,1021.0
20.637936,-55.0,60.0,1031.0
20.644607999999998,-54.0,77.0,1052.0
20.651267999999998,-56.0,72.0,1068.0
20.65794,-61.0,72.0,1073.0
20.6646,-55.0,72.0,1088.0
20.671272,-59.0,71.0,1093.0
20.677932,-59.0,75.0,1108.0
20.684604,-60.0,69.0,1102.0
20.691264,-61.0,69.0,1107.0
20.697936,-57.0,72.0,1098.0
20.704596,-64.0,72.0,1091.0
20.711268,-58.0,67.0,1078.0
20.717931999999998,-56.0,65.0,1073.0
20.724596,-53.0,70.0,1043.0
20.731268,-55.0,63.0,1042.0
20.737932,-49.0,69.0,1023.0
20.7446,-49.0,63.0,1002.0
20.75126,-44.0,61.0,990.0
20.757932,-47.0,63.0,977.0
20.764596,-40.0,64.0,963.0
20.771259999999998,-43.0,62.0,956.0
20.777928,-42.0,58.0,948.0
20.784592,-45.0,62.0,947.0
20.791259999999998,-43.0,61.0,936.0
20.797924,-44.0,57.0,941.0
20.804592,-41.0,68.0,944.0
20.81126,-43.0,62.0,954.0
20.817923999999998,-46.0,59.0,965.0
20.824592,-43.0,65.0,971.0
20.831256,-44.0,63.0,978.0
20.83792,-50.0,62.0,990.0
20.844583999999998,-49.0,61.0,1013.0
20.851252,-52.0,64.0,1026.0
20.85792,-55.0,63.0,1037.0
20.864587999999998,-58.0,68.0,1052.0
20.871252,-55.0,69.0,1076.0
20.87792,-63.0,69.0,1082.0
20.884584,-63.0,76.0,1089.0
20.891248,-60.0,72.0,1103.0
20.897916,-61.0,76.0,1104.0
20.90458,-63.0,72.0,1106.0
20.911248,-59.0,69.0,1101.0
20.917915999999998,-60.0,72.0,1096.0
20.92458,-64.0,74.0,1076.0
20.931248,-58.0,70.0,1084.0
20.937904,-53.0,68.0,1059.0
20.944575999999998,-58.0,64.0,1041.0
20.95124,-51.0,62.0,1029.0
20.957912,-50.0,66.0,1015.0
20.964568,-49.0,66.0,1000.0
20.971239999999998,-49.0,62.0,994.0
20.977899999999998,-47.0,62.0,971.0
20.984576,-45.0,63.0,963.0
20.991232,-45.0,61.0,961.0
20.997904,-39.0,63.0,949.0
21.004564,-41.0,59.0,952.0
21.011236,-39.0,57.0,943.0
21.0179,-44.0,58.0,945.0
21.024572,-43.0,68.0,943.0
21.031228,-41.0,71.0,949.0
21.0379,-42.0,68.0,966.0
21.04456,-47.0,61.0,976.0
21.051236,-50.0,65.0,991.0
21.0579,-51.0,67.0,1011.0
21.064567999999998,-51.0,66.0,1015.0
21.071232,-53.0,72.0,1028.0
21.0779,-57.0,69.0,1038.0
21.084564,-54.0,72.0,1063.0
21.091228,-56.0,69.0,1072.0
21.097896,-59.0,71.0,1077.0
21.104564,-57.0,76.0,1093.0
21.111224,-61.0,75.0,1101.0
21.117896,-62.0,68.0,1102.0
21.12456,-56.0,64.0,1101.0
21.131228,-62.0,72.0,1104.0
21.137892,-64.0,76.0,1078.0
21.14456,-60.0,74.0,1072.0
21.151224,-59.0,69.0,1072.0
21.157892,-57.0,72.0,1054.0
21.164555999999997,-54.0,68.0,1036.0
21.171224,-55.0,68.0,1026.0
21.177888,-49.0,60.0,1014.0
21.184552,-51.0,66.0,992.0
21.191219999999998,-47.0,66.0,988.0
21.197888,-40.0,62.0,974.0
21.204552,-45.0,57.0,962.0
21.211216,-46.0,62.0,960.0
21.217883999999998,-46.0,61.0,951.0
21.224552,-41.0,57.0,942.0
21.231216,-41.0,62.0,944.0
21.237883999999998,-40.0,63.0,948.0
21.244547999999998,-41.0,57.0,950.0
21.251212,-42.0,61.0,962.0
21.25788,-44.0,68.0,967.0
21.264547999999998,-45.0,63.0,985.0
21.271212,-46.0,64.0,994.0
21.277872,-49.0,62.0,997.0
21.284544,-52.0,65.0,1021.0
21.291204,-52.0,72.0,1030.0
21.297876,-56.0,74.0,1050.0
21.304536,-58.0,72.0,1059.0
21.311208,-58.0,66.0,1075.0
21.317868,-59.0,68.0,1081.0
21.32454,-58.0,70.0,1096.0
21.3312,-62.0,69.0,1103.0
21.337872,-59.0,67.0,1098.0
21.344532,-64.0,74.0,1098.0
21.351204,-61.0,75.0,1082.0
21.357864,-59.0,72.0,1083.0
21.364535999999998,-58.0,72.0,1076.0
21.371195999999998,-61.0,70.0,1062.0
21.377868,-56.0,69.0,1052.0
21.384528,-55.0,68.0,1031.0
21.391199999999998,-52.0,68.0,1018.0
21.397868,-47.0,68.0,1005.0
21.404532,-49.0,65.0,983.0
21.4112,-43.0,65.0,983.0
21.417863999999998,-48.0,63.0,964.0
21.424528,-47.0,62.0,962.0
21.431196,-45.0,61.0,955.0
21.43786,-42.0,57.0,951.0
21.444528,-42.0,65.0,943.0
21.451192,-41.0,60.0,946.0
21.45786,-44.0,63.0,945.0
21.464524,-47.0,59.0,956.0
21.471192,-44.0,61.0,966.0
21.477856,-45.0,63.0,976.0
21.484524,-47.0,58.0,984.0
21.491191999999998,-48.0,63.0,996.0
21.497856,-54.0,63.0,1019.0
21.504524,-51.0,67.0,1021.0
21.511188,-59.0,66.0,1038.0
21.517851999999998,-59.0,66.0,1047.0
21.52452,-59.0,68.0,1060.0
21.531184,-55.0,73.0,1080.0
21.537852,-61.0,73.0,1090.0
21.544515999999998,-66.0,66.0,1089.0
21.551184,-60.0,74.0,1100.0
21.557848,-62.0,70.0,1096.0
21.564515999999998,-65.0,76.0,1099.0
21.57118,-58.0,73.0,1086.0
21.577848,-61.0,74.0,1078.0
21.584516,-55.0,68.0,1063.0
21.591176,-59.0,65.0,1053.0
21.597848,-53.0,71.0,1044.0
21.604512,-55.0,68.0,1033.0
21.61118,-49.0,70.0,1013.0
21.617836,-49.0,65.0,1000.0
21.624508,-49.0,68.0,987.0
21.631168,-53.0,62.0,976.0
21.637843999999998,-45.0,58.0,960.0
21.6445,-43.0,62.0,957.0
21.651176,-43.0,59.0,957.0
21.657832,-45.0,62.0,947.0
21.664507999999998,-41.0,65.0,941.0
21.671167999999998,-39.0,63.0,951.0
21.677836,-43.0,61.0,962.0
21.684496,-47.0,58.0,964.0
21.691167999999998,-48.0,61.0,966.0
21.697827999999998,-44.0,62.0,978.0
21.704504,-49.0,61.0,989.0
21.71116,-49.0,63.0,1000.0
21.717831999999998,-53.0,63.0,1023.0
21.724496,-53.0,73.0,1034.0
21.731168,-55.0,76.0,1042.0
21.737832,-58.0,69.0,1056.0
21.7445,-57.0,71.0,1063.0
21.751164,-57.0,63.0,1078.0
21.757828,-56.0,69.0,1084.0
21.764495999999998,-59.0,66.0,1100.0
21.77116,-65.0,74.0,1097.0
21.777828,-62.0,72.0,1097.0
21.784492,-59.0,72.0,1086.0
21.791159999999998,-59.0,71.0,1084.0
21.797824,-59.0,67.0,1066.0
21.804492,-59.0,68.0,1060.0
21.811156,-57.0,71.0,1052.0
21.817823999999998,-54.0,65.0,1034.0
21.824492,-54.0,67.0,1023.0
21.831156,-49.0,72.0,1004.0
21.83782,-48.0,63.0,989.0
21.844488,-47.0,61.0,985.0
21.851152,-44.0,62.0,977.0
21.85782,-46.0,59.0,962.0
21.864484,-45.0,55.0,952.0
21.871152,-45.0,59.0,951.0
21.877816,-45.0,59.0,948.0
21.884484,-43.0,58.0,948.0
21.891151999999998,-45.0,56.0,953.0
21.897816,-43.0,60.0,958.0
21.90448,-47.0,60.0,963.0
21.911148,-48.0,62.0,970.0
21.917811999999998,-47.0,62.0,981.0
21.92448,-49.0,66.0,989.0
21.931144,-52.0,66.0,1003.0
21.937811999999997,-50.0,67.0,1025.0
21.94448,-55.0,65.0,1040.0
21.951144,-52.0,72.0,1046.0
21.957804,-59.0,70.0,1065.0
21.964472,-54.0,69.0,1069.0
21.971135999999998,-57.0,73.0,1081.0
21.977804,-58.0,74.0,1092.0
21.984468,-61.0,72.0,1095.0
21.991136,-59.0,68.0,1096.0
21.997799999999998,-64.0,74.0,1095.0
22.004472,-57.0,68.0,1090.0
22.011132,-54.0,72.0,1075.0
22.017803999999998,-61.0,70.0,1070.0
22.024464,-55.0,63.0,1055.0
22.031136,-58.0,62.0,1042.0
22.037796,-58.0,68.0,1035.0
22.044468,-54.0,60.0,1020.0
22.051128,-46.0,63.0,998.0
22.0578,-53.0,64.0,984.0
22.06446,-46.0,64.0,981.0
22.071132,-42.0,58.0,968.0
22.077796,-44.0,63.0,961.0
22.084464,-45.0,61.0,959.0
22.091131999999998,-40.0,65.0,951.0
22.097796,-42.0,64.0,949.0
22.10446,-44.0,57.0,948.0
22.111128,-39.0,65.0,953.0
22.117791999999998,-41.0,63.0,959.0
22.12446,-44.0,61.0,966.0
22.131124,-45.0,61.0,977.0
22.137791999999997,-51.0,69.0,989.0
22.144455999999998,-52.0,71.0,998.0
22.151124,-51.0,69.0,1011.0
22.157788,-49.0,67.0,1030.0
22.164455999999998,-59.0,68.0,1044.0
22.17112,-55.0,72.0,1054.0
22.177788,-54.0,73.0,1068.0
22.184456,-56.0,69.0,1082.0
22.191119999999998,-54.0,74.0,1079.0
22.197784,-63.0,72.0,1093.0
22.204452,-57.0,68.0,1094.0
22.211116,-60.0,73.0,1090.0
22.217783999999998,-56.0,74.0,1089.0
22.224448,-61.0,71.0,1094.0
22.231112,-58.0,76.0,1076.0
22.237783999999998,-56.0,66.0,1061.0
22.244448,-54.0,67.0,1052.0
22.251116,-54.0,65.0,1038.0
22.25778,-58.0,67.0,1022.0
22.264443999999997,-50.0,66.0,1010.0
22.271107999999998,-46.0,65.0,997.0
22.277776,-51.0,65.0,988.0
22.284444,-45.0,61.0,977.0
22.291107999999998,-45.0,62.0,958.0
22.297772,-41.0,62.0,951.0
22.30444,-45.0,64.0,946.0
22.3111,-41.0,61.0,951.0
22.317771999999998,-43.0,66.0,948.0
22.324431999999998,-44.0,59.0,953.0
22.331104,-45.0,56.0,957.0
22.337764,-43.0,55.0,962.0
22.34444,-45.0,63.0,969.0
22.351096,-43.0,72.0,986.0
22.357772,-48.0,67.0,989.0
22.364428,-49.0,65.0,1008.0
22.371104,-51.0,67.0,1023.0
22.37776,-54.0,73.0,1031.0
22.384436,-60.0,71.0,1048.0
22.391092,-58.0,60.0,1053.0
22.397768,-57.0,60.0,1075.0
22.404424,-58.0,67.0,1079.0
22.411096,-54.0,72.0,1078.0
22.417764,-59.0,73.0,1090.0
22.424432,-60.0,72.0,1094.0
22.431096,-61.0,75.0,1084.0
22.437763999999998,-60.0,73.0,1091.0
22.444428,-57.0,69.0,1065.0
22.451096,-57.0,62.0,1064.0
22.457756,-58.0,72.0,1050.0
22.464427999999998,-56.0,70.0,1039.0
22.471087999999998,-52.0,69.0,1039.0
22.47776,-52.0,71.0,1011.0
22.48442,-53.0,60.0,1010.0
22.491092,-46.0,63.0,989.0
22.497756,-47.0,68.0,978.0
22.504424,-45.0,57.0,969.0
22.511088,-40.0,61.0,966.0
22.517756,-43.0,58.0,960.0
22.52442,-45.0,56.0,958.0
22.531088,-43.0,63.0,944.0
22.537751999999998,-42.0,55.0,954.0
22.54442,-46.0,63.0,953.0
22.551084,-44.0,68.0,956.0
22.557752,-50.0,60.0,966.0
22.564415999999998,-49.0,62.0,985.0
22.57108,-42.0,65.0,984.0
22.577748,-51.0,67.0,987.0
22.584412,-48.0,68.0,1010.0
22.591079999999998,-52.0,73.0,1025.0
22.597744,-58.0,73.0,1037.0
22.604412,-55.0,69.0,1042.0
22.611076,-56.0,63.0,1067.0
22.617744,-58.0,70.0,1064.0
22.624412,-54.0,75.0,1087.0
22.631072,-67.0,73.0,1087.0
22.637736,-60.0,68.0,1095.0
22.644408,-62.0,71.0,1094.0
22.651068,-55.0,73.0,1084.0
22.65774,-58.0,72.0,1084.0
22.6644,-58.0,68.0,1074.0
22.671072,-57.0,72.0,1065.0
22.677732,-57.0,74.0,1066.0
22.684404,-54.0,70.0,1042.0
22.691064,-58.0,60.0,1028.0
22.697736,-51.0,63.0,1018.0
22.704396,-47.0,67.0,1004.0
22.711068,-51.0,62.0,987.0
22.717724,-45.0,63.0,980.0
22.7244,-46.0,58.0,975.0
22.731056,-43.0,71.0,961.0
22.737731999999998,-38.0,58.0,955.0
22.744391999999998,-40.0,62.0,963.0
22.75106,-40.0,58.0,952.0
22.757728,-37.0,58.0,955.0
22.764395999999998,-44.0,58.0,960.0
22.77106,-41.0,64.0,961.0
22.777728,-50.0,59.0,969.0
22.784395999999997,-47.0,67.0,979.0
22.791059999999998,-46.0,62.0,990.0
22.797728,-53.0,66.0,1003.0
22.804392,-51.0,64.0,1010.0
22.811056,-58.0,71.0,1031.0
22.817724,-49.0,68.0,1047.0
22.824392,-59.0,65.0,1054.0
22.831056,-60.0,67.0,1064.0
22.83772,-58.0,68.0,1068.0
22.844388,-60.0,76.0,1088.0
22.851052,-55.0,72.0,1092.0
22.857716,-62.0,73.0,1092.0
22.864387999999998,-57.0,72.0,1084.0
22.871048,-58.0,72.0,1086.0
22.877716,-62.0,70.0,1078.0
22.884384,-57.0,68.0,1068.0
22.891047999999998,-57.0,72.0,1054.0
22.897716,-53.0,66.0,1044.0
22.90438,-55.0,73.0,1038.0
22.911047999999997,-50.0,67.0,1015.0
22.917716,-48.0,62.0,1003.0
22.92438,-44.0,62.0,989.0
22.931044,-49.0,64.0,986.0
22.937711999999998,-45.0,72.0,979.0
22.94438,-47.0,61.0,963.0
22.951044,-48.0,58.0,953.0
22.957708,-43.0,59.0,960.0
22.964375999999998,-44.0,58.0,955.0
22.97104,-42.0,57.0,953.0
22.977704,-43.0,61.0,956.0
22.984372,-40.0,62.0,956.0
22.991035999999998,-44.0,61.0,964.0
22.997704,-47.0,67.0,980.0
23.004364,-50.0,65.0,984.0
23.011036,-49.0,67.0,1001.0
23.017699999999998,-49.0,65.0,1015.0
23.024368,-50.0,61.0,1021.0
23.031032,-52.0,65.0,1034.0
23.037703999999998,-51.0,70.0,1040.0
23.044359999999998,-54.0,72.0,1054.0
23.051036,-54.0,72.0,1067.0
23.057692,-56.0,74.0,1077.0
23.064367999999998,-57.0,71.0,1087.0
23.071023999999998,-58.0,75.0,1089.0
23.0777,-66.0,72.0,1088.0
23.084356,-59.0,64.0,1094.0
23.091027999999998,-55.0,73.0,1077.0
23.097687999999998,-56.0,71.0,1062.0
23.104364,-58.0,71.0,1057.0
23.111024,-52.0,65.0,1052.0
23.117696,-54.0,62.0,1040.0
23.12436,-52.0,63.0,1025.0
23.131028,-54.0,59.0,1018.0
23.137691999999998,-52.0,63.0,1003.0
23.14436,-48.0,60.0,993.0
23.151024,-45.0,64.0,978.0
23.157692,-45.0,67.0,971.0
23.164355999999998,-48.0,58.0,967.0
23.171024,-48.0,61.0,957.0
23.177688,-41.0,68.0,959.0
23.184355999999998,-43.0,65.0,951.0
23.191019999999998,-45.0,65.0,954.0
23.197688,-41.0,63.0,960.0
23.204352,-42.0,63.0,966.0
23.211019999999998,-48.0,61.0,971.0
23.217679999999998,-47.0,69.0,980.0
23.224352,-44.0,61.0,984.0
23.231012,-50.0,65.0,997.0
23.237683999999998,-49.0,65.0,1019.0
23.244348,-54.0,58.0,1033.0
23.251016,-56.0,63.0,1043.0
23.25768,-54.0,74.0,1057.0
23.264343999999998,-57.0,72.0,1061.0
23.271012,-61.0,73.0,1071.0
23.277676,-59.0,72.0,1079.0
23.284344,-57.0,74.0,1086.0
23.291007999999998,-56.0,74.0,1078.0
23.297676,-60.0,65.0,1088.0
23.30434,-58.0,68.0,1083.0
23.311007999999998,-58.0,69.0,1075.0
23.317667999999998,-59.0,72.0,1057.0
23.32434,-59.0,67.0,1066.0
23.331,-56.0,70.0,1044.0
23.337671999999998,-52.0,72.0,1035.0
23.344331999999998,-52.0,71.0,1026.0
23.351004,-50.0,65.0,1014.0
23.357664,-46.0,63.0,995.0
23.364335999999998,-47.0,68.0,991.0
23.370995999999998,-46.0,70.0,974.0
23.377668,-51.0,63.0,974.0
23.384328,-49.0,55.0,965.0
23.391,-43.0,58.0,956.0
23.39766,-40.0,59.0,954.0
23.404332,-43.0,60.0,961.0
23.410992,-42.0,61.0,959.0
23.417664,-45.0,65.0,965.0
23.424319999999998,-43.0,64.0,967.0
23.430996,-47.0,65.0,971.0
23.437656,-48.0,60.0,986.0
23.444328,-51.0,57.0,997.0
23.450992,-50.0,60.0,1005.0
23.45766,-48.0,63.0,1019.0
23.464323999999998,-52.0,74.0,1032.0
23.470992,-53.0,72.0,1043.0
23.47766,-59.0,72.0,1056.0
23.484324,-60.0,68.0,1060.0
23.490992,-59.0,73.0,1073.0
23.497656,-59.0,74.0,1083.0
23.504324,-60.0,73.0,1087.0
23.510987999999998,-65.0,68.0,1075.0
23.517652,-64.0,63.0,1080.0
23.524316,-54.0,74.0,1081.0
23.530988,-56.0,67.0,1072.0
23.537651999999998,-57.0,63.0,1062.0
23.544316,-59.0,72.0,1049.0
23.550984,-54.0,68.0,1044.0
23.557648,-55.0,66.0,1031.0
23.564315999999998,-52.0,65.0,1015.0
23.570984,-46.0,63.0,1009.0
23.577648,-55.0,68.0,1001.0
23.584315999999998,-49.0,69.0,984.0
23.59098,-47.0,59.0,971.0
23.597648,-48.0,60.0,969.0
23.604312,-45.0,57.0,962.0
23.610976,-49.0,63.0,955.0
23.617644,-45.0,61.0,955.0
23.624312,-40.0,61.0,957.0
23.630976,-44.0,70.0,960.0
23.637643999999998,-40.0,61.0,959.0
23.644308,-45.0,59.0,968.0
23.650972,-43.0,65.0,980.0
23.65764,-45.0,56.0,992.0
23.664308,-50.0,66.0,999.0
23.670968,-50.0,62.0,1017.0
23.67764,-52.0,63.0,1027.0
23.6843,-56.0,72.0,1030.0
23.690972,-54.0,66.0,1046.0
23.697627999999998,-54.0,72.0,1057.0
23.704304,-54.0,63.0,1064.0
23.710964,-55.0,68.0,1073.0
23.717636,-59.0,65.0,1085.0
23.724296,-57.0,71.0,1087.0
23.730964,-57.0,71.0,1086.0
23.737628,-58.0,75.0,1085.0
23.744296,-62.0,74.0,1076.0
23.750956,-58.0,73.0,1064.0
23.757628,-57.0,68.0,1053.0
23.764288,-58.0,69.0,1048.0
23.77096,-58.0,63.0,1032.0
23.777624,-51.0,65.0,1020.0
23.784292,-52.0,63.0,1011.0
23.79096,-49.0,65.0,1009.0
23.797628,-52.0,61.0,991.0
23.804292,-48.0,62.0,983.0
23.810955999999997,-48.0,61.0,976.0
23.817624,-43.0,59.0,966.0
23.824288,-45.0,58.0,957.0
23.830956,-42.0,61.0,956.0
23.837619999999998,-42.0,61.0,954.0
23.844288,-43.0,63.0,957.0
23.850952,-45.0,68.0,962.0
23.85762,-48.0,64.0,965.0
23.864283999999998,-46.0,60.0,977.0
23.870952,-48.0,59.0,983.0
23.87762,-49.0,70.0,990.0
23.88428,-50.0,55.0,1005.0
23.890952,-53.0,63.0,1027.0
23.897616,-54.0,66.0,1027.0
23.904284,-57.0,63.0,1043.0
23.910947999999998,-53.0,69.0,1049.0
23.917616,-56.0,68.0,1059.0
23.92428,-58.0,69.0,1072.0
23.930944,-61.0,69.0,1073.0
23.937611999999998,-62.0,71.0,1081.0
23.94428,-58.0,67.0,1078.0
23.950944,-56.0,73.0,1084.0
23.957608,-60.0,71.0,1072.0
23.964275999999998,-58.0,69.0,1067.0
23.97094,-55.0,69.0,1055.0
23.977608,-55.0,73.0,1053.0
23.984272,-50.0,68.0,1044.0
23.99094,-54.0,68.0,1035.0
23.997604,-57.0,70.0,1020.0
24.004272,-50.0,67.0,1010.0
24.010928,-53.0,63.0,999.0
24.017604,-47.0,65.0,987.0
24.024259999999998,-52.0,62.0,970.0
24.030936,-50.0,61.0,968.0
24.037592,-44.0,58.0,966.0
24.044264,-45.0,56.0,961.0
24.050928,-45.0,62.0,966.0
24.0576,-45.0,65.0,962.0
24.06426,-43.0,62.0,961.0
24.070932,-43.0,59.0,962.0
24.077592,-44.0,62.0,971.0
24.08426,-43.0,61.0,979.0
24.09092,-46.0,70.0,989.0
24.097596,-47.0,66.0,992.0
24.104256,-51.0,69.0,1011.0
24.110927999999998,-49.0,61.0,1030.0
24.117587999999998,-56.0,72.0,1035.0
24.12426,-54.0,72.0,1044.0
24.130928,-55.0,65.0,1057.0
24.137591999999998,-60.0,64.0,1063.0
24.14426,-61.0,72.0,1074.0
24.150924,-60.0,65.0,1074.0
24.157588,-59.0,74.0,1077.0
24.164255999999998,-55.0,70.0,1084.0
24.17092,-57.0,72.0,1078.0
24.177588,-61.0,74.0,1076.0
24.184252,-59.0,64.0,1067.0
24.19092,-56.0,67.0,1055.0
24.197588,-59.0,69.0,1046.0
24.204252,-53.0,70.0,1034.0
24.210919999999998,-55.0,65.0,1023.0
24.217584,-54.0,60.0,1017.0
24.224248,-51.0,65.0,996.0
24.230916,-50.0,64.0,986.0
24.237579999999998,-49.0,62.0,984.0
24.244248,-44.0,62.0,978.0
24.250912,-46.0,68.0,963.0
24.25758,-43.0,63.0,962.0
24.264243999999998,-49.0,59.0,962.0
24.270912,-43.0,64.0,961.0
24.277576,-44.0,67.0,957.0
24.284243999999997,-44.0,56.0,961.0
24.290907999999998,-46.0,61.0,967.0
24.297572,-48.0,65.0,975.0
24.304244,-44.0,61.0,988.0
24.310907999999998,-51.0,60.0,990.0
24.317572,-55.0,61.0,1000.0
24.324236,-51.0,72.0,1016.0
24.330907999999997,-49.0,70.0,1027.0
24.337571999999998,-54.0,68.0,1035.0
24.34424,-50.0,75.0,1052.0
24.350896,-54.0,69.0,1054.0
24.357571999999998,-55.0,70.0,1060.0
24.364231999999998,-59.0,67.0,1078.0
24.370904,-55.0,70.0,1072.0
24.377564,-55.0,73.0,1075.0
24.384235999999998,-57.0,72.0,1082.0
24.390895999999998,-56.0,72.0,1072.0
24.397568,-60.0,70.0,1071.0
24.404224,-55.0,65.0,1071.0
24.410895999999997,-58.0,66.0,1053.0
24.417559999999998,-59.0,67.0,1037.0
24.424232,-56.0,67.0,1034.0
24.430888,-54.0,63.0,1028.0
24.437564,-47.0,63.0,1011.0
24.444219999999998,-51.0,63.0,1003.0
24.450892,-48.0,64.0,984.0
24.457556,-46.0,62.0,977.0
24.464223999999998,-45.0,63.0,974.0
24.470892,-45.0,68.0,961.0
24.477556,-42.0,62.0,964.0
24.484223999999998,-46.0,62.0,959.0
24.490887999999998,-46.0,61.0,961.0
24.497556,-45.0,65.0,961.0
24.50422,-45.0,61.0,964.0
24.510887999999998,-40.0,62.0,973.0
24.517552,-47.0,61.0,975.0
24.52422,-49.0,64.0,986.0
24.530884,-48.0,65.0,995.0
24.537551999999998,-45.0,67.0,1007.0
24.544216,-54.0,66.0,1020.0
24.550884,-49.0,65.0,1028.0
24.557551999999998,-52.0,63.0,1042.0
24.564216,-56.0,65.0,1044.0
24.570884,-56.0,65.0,1054.0
24.577548,-53.0,68.0,1068.0
24.584215999999998,-59.0,72.0,1071.0
24.59088,-56.0,73.0,1078.0
24.597548,-56.0,68.0,1071.0
24.604212,-55.0,74.0,1071.0
24.610875999999998,-62.0,75.0,1071.0
24.617544,-53.0,70.0,1072.0
24.624208,-55.0,66.0,1054.0
24.630876,-55.0,65.0,1050.0
24.637544,-56.0,68.0,1041.0
24.644208,-53.0,68.0,1035.0
24.650872,-55.0,65.0,1015.0
24.657539999999997,-53.0,67.0,1011.0
24.664203999999998,-51.0,67.0,985.0
24.670872,-49.0,60.0,980.0
24.677536,-48.0,62.0,977.0
24.684203999999998,-41.0,57.0,966.0
24.69086,-48.0,56.0,963.0
24.697536,-48.0,59.0,963.0
24.704196,-47.0,59.0,957.0
24.710867999999998,-46.0,63.0,965.0
24.717527999999998,-44.0,58.0,961.0
24.7242,-44.0,63.0,968.0
24.73086,-45.0,63.0,967.0
24.737531999999998,-51.0,58.0,982.0
24.744191999999998,-51.0,64.0,991.0
24.750864,-52.0,63.0,1003.0
24.757524,-50.0,65.0,1015.0
24.764196,-48.0,69.0,1022.0
24.770856,-56.0,69.0,1030.0
24.777528,-54.0,70.0,1044.0
24.784188,-58.0,62.0,1052.0
24.79086,-53.0,67.0,1058.0
24.79752,-58.0,66.0,1071.0
24.804192,-60.0,69.0,1070.0
24.810859999999998,-55.0,74.0,1068.0
24.817524,-55.0,72.0,1071.0
24.824192,-59.0,75.0,1075.0
24.830856,-56.0,71.0,1068.0
24.837519999999998,-56.0,70.0,1065.0
24.844188,-57.0,68.0,1053.0
24.850852,-58.0,72.0,1046.0
24.857519999999997,-52.0,74.0,1036.0
24.864183999999998,-56.0,66.0,1032.0
24.870852,-50.0,64.0,1012.0
24.87752,-49.0,62.0,1006.0
24.884183999999998,-53.0,65.0,989.0
24.890852,-47.0,61.0,987.0
24.897516,-49.0,60.0,973.0
24.904184,-47.0,57.0,965.0
24.910847999999998,-46.0,61.0,967.0
24.917516,-47.0,60.0,971.0
24.92418,-39.0,61.0,959.0
24.930844,-44.0,62.0,970.0
24.937511999999998,-47.0,61.0,962.0
24.94418,-44.0,60.0,969.0
24.950844,-43.0,60.0,987.0
24.957508,-44.0,65.0,985.0
24.964176,-48.0,69.0,995.0
24.970844,-52.0,64.0,1001.0
24.977508,-50.0,64.0,1018.0
24.984171999999997,-53.0,71.0,1030.0
24.99084,-54.0,64.0,1044.0
24.997504,-53.0,65.0,1053.0
25.004172,-57.0,70.0,1050.0
25.010835999999998,-55.0,71.0,1067.0
25.017504,-59.0,67.0,1077.0
25.024172,-58.0,72.0,1069.0
25.030828,-58.0,76.0,1073.0
25.037504,-57.0,72.0,1071.0
25.044159999999998,-58.0,69.0,1077.0
25.050832,-55.0,72.0,1067.0
25.057492,-58.0,64.0,1058.0
25.064168,-56.0,69.0,1045.0
25.070823999999998,-52.0,66.0,1043.0
25.077496,-53.0,65.0,1035.0
25.08416,-51.0,69.0,1024.0
25.090828,-48.0,65.0,1001.0
25.097488,-51.0,71.0,1002.0
25.10416,-54.0,62.0,990.0
25.110823999999997,-45.0,65.0,979.0
25.117492,-52.0,65.0,981.0
25.124152,-51.0,65.0,968.0
25.130824,-46.0,62.0,970.0
25.137484,-43.0,65.0,963.0
25.14416,-45.0,61.0,969.0
25.150824,-46.0,66.0,965.0
25.157491999999998,-41.0,59.0,968.0
25.164156,-44.0,65.0,977.0
25.17082,-45.0,61.0,980.0
25.177488,-48.0,65.0,989.0
25.184151999999997,-50.0,69.0,995.0
25.19082,-53.0,69.0,1015.0
25.197484,-54.0,64.0,1024.0
25.204152,-53.0,65.0,1033.0
25.210815999999998,-54.0,65.0,1046.0
25.217484,-58.0,68.0,1055.0
25.224148,-55.0,72.0,1060.0
25.230816,-62.0,73.0,1068.0
25.237479999999998,-56.0,71.0,1071.0
25.244148,-56.0,73.0,1071.0
25.250812,-59.0,72.0,1070.0
25.257479999999997,-57.0,69.0,1073.0
25.264143999999998,-56.0,63.0,1067.0
25.270812,-55.0,65.0,1068.0
25.277476,-55.0,74.0,1051.0
25.284143999999998,-52.0,68.0,1042.0
25.290808,-58.0,67.0,1038.0
25.297476,-53.0,68.0,1023.0
25.30414,-53.0,67.0,1012.0
25.310807999999998,-52.0,61.0,1002.0
25.317472,-49.0,69.0,996.0
25.32414,-50.0,60.0,978.0
25.330804,-42.0,62.0,982.0
25.337471999999998,-48.0,61.0,966.0
25.34414,-44.0,61.0,969.0
25.350804,-45.0,61.0,963.0
25.357471999999998,-46.0,59.0,968.0
25.364136,-49.0,61.0,961.0
25.370796,-47.0,60.0,974.0
25.377468,-47.0,62.0,970.0
25.384128,-45.0,65.0,976.0
25.3908,-47.0,62.0,988.0
25.39746,-49.0,68.0,993.0
25.404132,-49.0,64.0,1007.0
25.410792,-49.0,67.0,1016.0
25.417464,-48.0,72.0,1027.0
25.424124,-49.0,64.0,1031.0
25.430795999999997,-54.0,65.0,1047.0
25.437455999999997,-58.0,67.0,1056.0
25.444128,-55.0,68.0,1059.0
25.450784,-58.0,74.0,1063.0
25.457459999999998,-57.0,73.0,1069.0
25.464119999999998,-59.0,74.0,1071.0
25.470792,-61.0,73.0,1084.0
25.477452,-57.0,71.0,1075.0
25.484123999999998,-54.0,71.0,1066.0
25.490788,-58.0,73.0,1057.0
25.497456,-60.0,75.0,1054.0
25.504123999999997,-53.0,73.0,1041.0
25.510787999999998,-55.0,77.0,1034.0
25.517456,-53.0,74.0,1028.0
25.52412,-50.0,68.0,1010.0
25.530784,-50.0,59.0,1004.0
25.537452,-48.0,65.0,996.0
25.544116,-51.0,63.0,982.0
25.550784,-44.0,68.0,982.0
25.557447999999997,-46.0,62.0,972.0
25.564116,-42.0,67.0,967.0
25.57078,-46.0,68.0,966.0
25.577448,-46.0,61.0,960.0
25.584115999999998,-48.0,59.0,966.0
25.59078,-42.0,58.0,969.0
25.597444,-47.0,63.0,978.0
25.604112,-48.0,65.0,989.0
25.610775999999998,-47.0,67.0,991.0
25.61744,-50.0,60.0,995.0
25.624112,-51.0,66.0,1009.0
25.630775999999997,-45.0,68.0,1018.0
25.637439999999998,-52.0,68.0,1033.0
25.644104,-52.0,72.0,1038.0
25.650776,-58.0,71.0,1049.0
25.657439999999998,-61.0,74.0,1051.0
25.664108,-61.0,75.0,1059.0
25.670772,-55.0,74.0,1064.0
25.677436,-57.0,71.0,1072.0
25.684103999999998,-56.0,72.0,1067.0
25.690768,-57.0,76.0,1076.0
25.697432,-53.0,75.0,1062.0
25.7041,-55.0,77.0,1060.0
25.71076,-55.0,74.0,1058.0
25.717432,-55.0,70.0,1048.0
25.724092,-53.0,64.0,1032.0
25.730764,-55.0,65.0,1030.0
25.737424,-55.0,67.0,1030.0
25.744096,-51.0,65.0,1012.0
25.750756,-55.0,61.0,1004.0
25.757431999999998,-48.0,66.0,989.0
25.764087999999997,-48.0,63.0,977.0
25.77076,-45.0,65.0,970.0
25.77742,-45.0,63.0,970.0
25.784095999999998,-47.0,65.0,966.0
25.790751999999998,-44.0,60.0,961.0
25.797428,-42.0,63.0,965.0
25.804084,-43.0,59.0,968.0
25.81076,-48.0,63.0,973.0
25.817415999999998,-45.0,61.0,976.0
25.824088,-43.0,60.0,988.0
25.830755999999997,-51.0,63.0,993.0
25.837424,-55.0,60.0,1001.0
25.844088,-53.0,65.0,1008.0
25.850756,-52.0,63.0,1018.0
25.857419999999998,-57.0,67.0,1031.0
25.864088,-53.0,63.0,1044.0
25.870748,-52.0,68.0,1062.0
25.87742,-57.0,69.0,1056.0
25.884079999999997,-57.0,65.0,1068.0
25.890752,-57.0,70.0,1067.0
25.897412,-58.0,64.0,1074.0
25.904083999999997,-55.0,74.0,1068.0
25.910747999999998,-61.0,68.0,1070.0
25.917416,-58.0,69.0,1061.0
25.92408,-54.0,75.0,1060.0
25.930744,-56.0,73.0,1055.0
25.937412,-59.0,75.0,1039.0
25.944076,-54.0,63.0,1036.0
25.950744,-56.0,63.0,1025.0
25.957407999999997,-51.0,66.0,1020.0
25.964076,-51.0,68.0,1000.0
25.97074,-53.0,58.0,994.0
25.977408,-50.0,64.0,984.0
25.984075999999998,-43.0,68.0,982.0
25.99074,-50.0,65.0,974.0
25.997408,-47.0,61.0,966.0
26.004072,-44.0,63.0,966.0
26.01074,-48.0,60.0,973.0
26.017404,-46.0,60.0,973.0
26.024068,-47.0,63.0,969.0
26.030735999999997,-47.0,68.0,977.0
26.037399999999998,-48.0,63.0,985.0
26.044068,-46.0,62.0,984.0
26.050728,-47.0,65.0,1002.0
26.057399999999998,-48.0,55.0,1008.0
26.064059999999998,-58.0,65.0,1019.0
26.070732,-52.0,71.0,1028.0
26.077392,-55.0,66.0,1037.0
26.084063999999998,-59.0,67.0,1051.0
26.090723999999998,-55.0,68.0,1051.0
26.097396,-56.0,72.0,1059.0
26.104056,-55.0,67.0,1066.0
26.110727999999998,-55.0,72.0,1068.0
26.117388,-62.0,72.0,1068.0
26.12406,-56.0,69.0,1066.0
26.13072,-55.0,74.0,1060.0
26.137392,-58.0,69.0,1073.0
26.144052,-53.0,76.0,1047.0
26.150724,-58.0,68.0,1047.0
26.157384,-55.0,72.0,1039.0
26.164056,-55.0,70.0,1024.0
26.170724,-50.0,71.0,1025.0
26.177388,-49.0,62.0,1007.0
26.184051999999998,-49.0,71.0,992.0
26.19072,-47.0,68.0,988.0
26.197384,-51.0,56.0,981.0
26.204051999999997,-49.0,63.0,980.0
26.210715999999998,-44.0,66.0,973.0
26.217384,-46.0,65.0,972.0
26.224052,-47.0,57.0,962.0
26.230715999999997,-48.0,62.0,968.0
26.237384,-41.0,63.0,972.0
26.244048,-48.0,61.0,972.0
26.250716,-51.0,69.0,981.0
26.257379999999998,-50.0,66.0,983.0
26.264044,-50.0,70.0,993.0
26.270712,-49.0,68.0,1000.0
26.277376,-51.0,61.0,1006.0
26.284043999999998,-58.0,63.0,1024.0
26.290708,-51.0,65.0,1033.0
26.297376,-53.0,71.0,1037.0
26.304043999999998,-55.0,69.0,1048.0
26.310707999999998,-55.0,69.0,1050.0
26.317376,-58.0,71.0,1058.0
26.32404,-54.0,73.0,1063.0
26.330703999999997,-59.0,67.0,1067.0
26.337372,-57.0,69.0,1071.0
26.34404,-53.0,70.0,1060.0
26.350704,-57.0,73.0,1060.0
26.357371999999998,-58.0,74.0,1059.0
26.364036,-55.0,69.0,1047.0
26.370704,-52.0,68.0,1037.0
26.377368,-52.0,63.0,1035.0
26.384031999999998,-48.0,73.0,1027.0
26.390691999999998,-52.0,57.0,1014.0
26.397368,-49.0,64.0,1002.0
26.404028,-53.0,69.0,993.0
26.410695999999998,-48.0,65.0,981.0
26.41736,-48.0,65.0,981.0
26.424028,-46.0,62.0,975.0
26.430692,-45.0,64.0,971.0
26.437364,-47.0,56.0,974.0
26.44402,-45.0,58.0,967.0
26.450696,-45.0,65.0,967.0
26.457352,-47.0,61.0,968.0
26.464028,-46.0,62.0,978.0
26.470684,-50.0,61.0,985.0
26.477359999999997,-47.0,63.0,986.0
26.484016,-54.0,62.0,999.0
26.490688,-51.0,60.0,1012.0
26.497348,-49.0,65.0,1017.0
26.50402,-52.0,67.0,1028.0
26.510688,-52.0,72.0,1028.0
26.517356,-53.0,74.0,1036.0
26.52402,-55.0,69.0,1060.0
26.530687999999998,-56.0,73.0,1059.0
26.537347999999998,-56.0,71.0,1063.0
26.54402,-57.0,72.0,1060.0
26.550684,-55.0,73.0,1074.0
26.557351999999998,-60.0,74.0,1071.0
26.564016,-58.0,72.0,1062.0
26.57068,-58.0,65.0,1058.0
26.577344,-53.0,68.0,1054.0
26.584016,-56.0,62.0,1053.0
26.59068,-53.0,63.0,1037.0
26.597344,-55.0,56.0,1023.0
26.604011999999997,-54.0,67.0,1020.0
26.610675999999998,-50.0,64.0,1014.0
26.61734,-49.0,67.0,1000.0
26.624012,-52.0,62.0,994.0
26.630675999999998,-47.0,61.0,988.0
26.637344,-45.0,69.0,978.0
26.644008,-47.0,61.0,976.0
26.650676,-48.0,59.0,966.0
26.657339999999998,-46.0,58.0,969.0
26.664008,-47.0,62.0,975.0
26.670672,-49.0,71.0,971.0
26.677336,-46.0,63.0,974.0
26.684003999999998,-45.0,61.0,980.0
26.690668,-49.0,65.0,984.0
26.697336,-50.0,61.0,990.0
26.704003999999998,-52.0,59.0,1010.0
26.710668,-50.0,60.0,1008.0
26.717332,-54.0,63.0,1017.0
26.723996,-52.0,65.0,1029.0
26.730663999999997,-57.0,71.0,1035.0
26.737332,-54.0,70.0,1041.0
26.743992,-54.0,62.0,1052.0
26.750664,-56.0,68.0,1065.0
26.757324,-56.0,65.0,1058.0
26.763996,-56.0,68.0,1060.0
26.770652,-55.0,68.0,1070.0
26.777328,-60.0,69.0,1061.0
26.783987999999997,-57.0,69.0,1058.0
26.79066,-54.0,71.0,1066.0
26.79732,-54.0,66.0,1053.0
26.803991999999997,-58.0,68.0,1046.0
26.810651999999997,-57.0,64.0,1033.0
26.817324,-49.0,70.0,1028.0
26.82398,-51.0,66.0,1019.0
26.830655999999998,-54.0,70.0,1004.0
26.837315999999998,-50.0,63.0,1000.0
26.843988,-49.0,62.0,993.0
26.850648,-46.0,63.0,989.0
26.857319999999998,-50.0,62.0,979.0
26.863988,-47.0,58.0,979.0
26.870652,-44.0,63.0,973.0
26.877316,-45.0,61.0,970.0
26.883983999999998,-50.0,58.0,973.0
26.890652,-48.0,58.0,973.0
26.897316,-49.0,62.0,977.0
26.903983999999998,-41.0,53.0,981.0
26.910648,-48.0,69.0,996.0
26.917316,-49.0,61.0,1003.0
26.92398,-55.0,67.0,1006.0
26.930643999999997,-52.0,63.0,1017.0
26.937312,-50.0,68.0,1025.0
26.943976,-53.0,65.0,1038.0
26.950644,-55.0,62.0,1034.0
26.957307999999998,-60.0,71.0,1043.0
26.963976,-59.0,71.0,1059.0
